trial_order,id,condition,correct,RT
0,11160,condition_b,True,142.42281874732697
1,11160,baseline,False,271.1654223617397
2,11160,condition_b,True,213.06972462148423
3,11160,condition_b,True,315.8793463162268
4,11160,baseline,True,312.05626764507383
5,11160,condition_b,True,645.0011654788209
6,11160,baseline,True,354.1116694014912
7,11160,baseline,True,229.6848425834292
8,11160,condition_a,True,360.92796826390463
9,11160,baseline,False,448.500426525192
10,11160,baseline,False,337.24430617756656
11,11160,condition_b,True,116.82585936426206
12,11160,condition_b,True,327.0354503356478
13,11160,condition_a,True,548.8242662896654
14,11160,condition_b,True,219.08715003526737
15,11160,condition_a,True,891.1705205818004
16,11160,condition_b,True,199.78733782724225
17,11160,baseline,True,380.7352164442
18,11160,condition_a,True,566.3190657514805
19,11160,baseline,True,268.6450321579467
20,11160,condition_a,True,488.3444252148365
21,11160,condition_b,True,675.4304620174125
22,11160,baseline,True,316.32511047606346
23,11160,condition_a,True,427.777922828003
24,11160,baseline,True,208.34092700668137
25,11160,baseline,True,490.7985922786435
26,11160,baseline,True,288.2812754319287
27,11160,condition_a,True,352.9747008281722
28,11160,condition_b,True,333.65193299458656
29,11160,condition_b,True,213.6132309989429
30,11160,condition_b,True,472.0984232042272
31,11160,baseline,True,229.62459163895716
32,11160,baseline,True,214.7496239025857
33,11160,condition_b,True,274.29028481989906
34,11160,baseline,True,460.2638486532665
35,11160,condition_b,True,336.2646415100413
36,11160,condition_a,False,505.0063170505056
37,11160,baseline,True,253.902692324845
38,11160,condition_b,True,217.0294592016027
39,11160,baseline,True,164.9481891993857
40,11160,condition_a,True,290.2493469177658
41,11160,condition_a,False,461.4645231480704
42,11160,baseline,True,190.98111751044615
43,11160,condition_b,True,380.4596278114252
44,11160,condition_b,True,935.1468945853316
45,11160,condition_a,True,243.18705783075367
46,11160,condition_b,True,263.4533242573096
47,11160,condition_a,True,198.45824863636955
48,11160,condition_b,True,459.6561438462568
49,11160,condition_a,True,485.9303676249934
50,11160,condition_a,True,157.54322369978843
51,11160,condition_a,True,574.1256880054078
52,11160,condition_a,True,397.4061563104684
53,11160,baseline,True,195.062684670158
54,11160,condition_a,True,505.1862537881888
55,11160,baseline,True,539.537923071172
56,11160,condition_a,True,524.8588481316646
57,11160,condition_a,True,253.1243186422389
58,11160,baseline,False,300.34194457663574
59,11160,baseline,True,687.2379799966452
60,11160,condition_b,True,266.3370344086727
61,11160,condition_b,True,242.13623355015196
62,11160,baseline,False,187.8456877738847
63,11160,condition_a,True,939.2668988520676
64,11160,condition_b,True,363.92533469559766
65,11160,condition_a,True,261.79443254954253
66,11160,condition_b,True,188.9531272143821
67,11160,baseline,False,227.4614545695337
68,11160,baseline,True,440.1298813011564
69,11160,condition_a,True,349.62800376040923
70,11160,baseline,False,336.0109445777234
71,11160,baseline,True,132.71779288809887
72,11160,condition_a,True,182.92193606455413
73,11160,condition_a,False,226.8983243385166
74,11160,condition_b,True,363.8310897234626
75,11160,condition_b,True,55.06306282192677
76,11160,baseline,False,374.3973630063225
77,11160,condition_a,True,575.4070324047675
78,11160,condition_a,True,575.2151827763558
79,11160,condition_a,True,452.5492463433984
80,11160,baseline,True,167.12770082814345
81,11160,baseline,False,495.032085039505
82,11160,condition_b,True,173.18296320868336
83,11160,condition_a,True,693.7775952950839
84,11160,condition_b,True,209.24176976074244
85,11160,baseline,False,283.4384048369353
86,11160,condition_b,True,329.2290800429697
87,11160,condition_a,False,223.31406467653196
88,11160,condition_a,True,275.7561822933402
89,11160,condition_b,True,109.35625322879962
90,11160,baseline,True,170.69160493931358
91,11160,condition_b,True,162.97754180342835
92,11160,condition_b,True,246.14903579611325
93,11160,condition_b,True,302.7484041605841
94,11160,baseline,False,199.6368286537606
95,11160,baseline,True,213.44432136598
96,11160,condition_b,True,325.0073132113215
97,11160,condition_a,False,274.8643348097358
98,11160,condition_b,True,190.19129747145556
99,11160,condition_b,True,306.267780438891
100,11160,baseline,True,321.8105136069796
101,11160,condition_a,True,949.504402906818
102,11160,condition_b,True,188.45614471477808
103,11160,condition_a,True,284.5275299890994
104,11160,condition_a,True,835.34145903007
105,11160,condition_a,True,354.8882959005536
106,11160,condition_a,True,291.5247960815193
107,11160,condition_b,True,470.8192574101557
108,11160,baseline,True,235.50801955598905
109,11160,baseline,False,286.79278094076227
110,11160,condition_a,True,529.861964962119
111,11160,baseline,True,301.0031078644089
112,11160,condition_b,True,524.085817251086
113,11160,condition_a,True,163.66583761115402
114,11160,baseline,True,460.5163957592206
115,11160,condition_b,True,169.06064569231026
116,11160,condition_a,False,519.0977738649383
117,11160,condition_b,True,460.1795520830027
118,11160,baseline,False,306.652791787937
119,11160,condition_a,True,391.7902991980747
0,38044,condition_a,True,1256.4319773231882
1,38044,baseline,False,695.651833894502
2,38044,condition_b,True,646.9200581652883
3,38044,baseline,True,279.66592515143464
4,38044,condition_a,True,1924.5796343151685
5,38044,condition_b,True,581.773254969518
6,38044,baseline,True,556.3215178562463
7,38044,baseline,True,1156.8108062101112
8,38044,baseline,False,1475.2112813395229
9,38044,condition_a,True,776.7238733772643
10,38044,condition_b,True,1444.7770743508386
11,38044,condition_a,True,1050.1420472281552
12,38044,baseline,False,1163.6663024025822
13,38044,condition_b,True,466.73640771489073
14,38044,condition_a,True,813.3079335788832
15,38044,baseline,True,402.67354760781313
16,38044,baseline,False,922.5162851574024
17,38044,baseline,False,883.6716387641975
18,38044,condition_b,True,1136.892352304491
19,38044,baseline,True,565.3186973658555
20,38044,condition_b,True,928.641780672433
21,38044,condition_b,True,572.3330111805
22,38044,baseline,True,740.809358392043
23,38044,condition_a,True,1024.2371107648244
24,38044,baseline,False,975.1641297412348
25,38044,condition_a,True,1088.645380297083
26,38044,condition_b,True,894.6463605463415
27,38044,condition_a,False,1191.8951102237315
28,38044,baseline,True,582.1715950683637
29,38044,condition_a,False,793.3842494804426
30,38044,condition_a,True,1754.1579221922111
31,38044,condition_a,True,1100.022023304667
32,38044,condition_b,True,859.2870592579849
33,38044,baseline,True,1096.1725734617503
34,38044,condition_a,True,1322.4990547234584
35,38044,condition_a,True,2781.490755574212
36,38044,baseline,True,781.1060819364213
37,38044,condition_a,True,905.2416067304216
38,38044,condition_b,True,621.2640003538457
39,38044,baseline,True,2381.760237009036
40,38044,baseline,False,743.2354122921049
41,38044,condition_b,False,489.8464730314829
42,38044,condition_b,True,912.4376794802724
43,38044,condition_a,True,1431.533693115308
44,38044,condition_a,False,796.4548699625187
45,38044,condition_b,False,447.690027534213
46,38044,condition_b,True,1029.2548565186985
47,38044,baseline,True,2010.5091227030528
48,38044,condition_b,True,637.0214019295083
49,38044,baseline,True,1542.5962406456194
50,38044,condition_a,True,740.0521074438337
51,38044,baseline,True,296.6999179331062
52,38044,condition_a,True,710.6896632225745
53,38044,baseline,True,1180.9531083998845
54,38044,baseline,True,791.5069960688686
55,38044,condition_a,True,2556.3438589420407
56,38044,condition_a,False,1958.3915874163504
57,38044,condition_a,False,1333.1399671923978
58,38044,condition_a,True,1766.3228280373698
59,38044,condition_b,True,807.563695545144
60,38044,baseline,True,927.2012683357268
61,38044,condition_b,True,257.6410523469491
62,38044,condition_a,True,1365.7109859463949
63,38044,baseline,True,456.0839781090356
64,38044,baseline,True,422.8758717864195
65,38044,condition_b,True,1070.327642524174
66,38044,condition_b,True,775.7090390026929
67,38044,condition_b,True,550.5390488734764
68,38044,baseline,False,501.3249554408625
69,38044,condition_a,True,1235.0650197990997
70,38044,condition_b,True,812.1704243381305
71,38044,condition_a,False,2995.143315411138
72,38044,condition_a,True,1364.3499945923256
73,38044,baseline,True,347.3404316127476
74,38044,condition_b,True,1976.737121835753
75,38044,condition_a,True,1527.9186918541084
76,38044,condition_a,True,875.7117422747469
77,38044,condition_a,True,805.630616393612
78,38044,condition_a,True,578.0206042459519
79,38044,condition_b,True,458.7795228406859
80,38044,condition_a,True,817.7380582018088
81,38044,condition_a,True,1621.4411972334965
82,38044,baseline,True,602.5352928396946
83,38044,condition_b,True,822.5807597293457
84,38044,baseline,True,1433.5048992227166
85,38044,condition_b,True,494.1588101511708
86,38044,baseline,True,692.0812007170332
87,38044,condition_b,True,296.0890575603013
88,38044,condition_b,True,644.0008458820112
89,38044,baseline,True,930.349847223094
90,38044,condition_b,True,1879.238065756896
91,38044,condition_a,False,787.0775567784424
92,38044,baseline,True,673.9000964602426
93,38044,condition_b,True,714.2093879786531
94,38044,condition_b,True,828.8868555285802
95,38044,condition_b,True,558.4282640924515
96,38044,condition_b,True,412.71013970763016
97,38044,condition_b,True,680.9080876180003
98,38044,condition_a,True,1145.3718945390922
99,38044,baseline,True,281.25624378343906
100,38044,condition_a,True,1472.560193556737
101,38044,baseline,True,1788.5479412783002
102,38044,baseline,False,1603.199383872682
103,38044,baseline,False,894.0427538703287
104,38044,condition_a,True,681.7591542408591
105,38044,condition_a,False,881.1807658572102
106,38044,condition_b,True,274.8476861204302
107,38044,condition_a,False,747.8291499074485
108,38044,condition_b,True,354.8713112489353
109,38044,condition_b,True,480.17174245120026
110,38044,condition_b,True,528.6171606442208
111,38044,condition_b,True,509.77007496846
112,38044,baseline,True,838.7257588956937
113,38044,condition_a,True,1845.8512352897703
114,38044,condition_b,True,1080.9113822960396
115,38044,baseline,True,1666.9258080780432
116,38044,condition_a,False,2123.1119317576645
117,38044,condition_b,True,541.6459394122282
118,38044,baseline,True,624.9908250561073
119,38044,baseline,True,1215.158732027928
0,36525,condition_a,False,657.8248116192826
1,36525,condition_a,True,1054.1717429008138
2,36525,baseline,True,716.8626238291453
3,36525,condition_a,True,2016.109377953726
4,36525,condition_b,True,530.2336046802767
5,36525,baseline,True,230.96279534810756
6,36525,baseline,True,524.8663908555832
7,36525,condition_b,True,341.2992813160628
8,36525,baseline,True,777.481237458004
9,36525,condition_b,True,481.9894558481603
10,36525,condition_a,True,1001.1489257080492
11,36525,condition_b,True,421.31995484550765
12,36525,condition_a,False,414.8300980095872
13,36525,condition_a,True,835.3102421158532
14,36525,baseline,False,875.2661153711016
15,36525,condition_a,False,1055.185553372782
16,36525,condition_a,True,574.4277477530433
17,36525,condition_a,True,804.5715927212271
18,36525,condition_b,False,337.40923216751094
19,36525,condition_b,True,216.41576419422017
20,36525,condition_a,False,332.21984634883097
21,36525,baseline,True,344.7134988644544
22,36525,condition_a,True,299.3397334142018
23,36525,condition_b,True,441.356974604649
24,36525,condition_b,True,337.2394133153232
25,36525,baseline,True,281.63609546370594
26,36525,condition_a,True,832.0456708381887
27,36525,condition_a,True,454.6453829238473
28,36525,condition_b,True,542.1875997661696
29,36525,condition_b,True,924.1833383184688
30,36525,condition_b,True,745.8676452420351
31,36525,baseline,True,430.0826939375159
32,36525,condition_a,True,1061.857514085731
33,36525,condition_b,True,377.58787760543794
34,36525,condition_b,True,292.5574368699574
35,36525,baseline,True,852.7343536604986
36,36525,condition_b,True,435.06867585481695
37,36525,condition_b,True,1207.0206658962584
38,36525,condition_b,True,604.3966734393647
39,36525,condition_b,True,321.7691775329954
40,36525,condition_a,False,526.6508788832851
41,36525,condition_a,True,941.7308930908704
42,36525,condition_b,True,454.4139482149638
43,36525,baseline,False,380.15282559864215
44,36525,condition_b,True,298.08303396768565
45,36525,condition_a,False,460.31346055357767
46,36525,baseline,False,701.2545556735914
47,36525,condition_a,False,306.8332263456955
48,36525,condition_b,True,462.13416889437855
49,36525,condition_b,True,342.03265801724945
50,36525,condition_b,True,417.8576711861113
51,36525,baseline,True,675.8590321450316
52,36525,baseline,True,253.83547329377097
53,36525,baseline,True,386.9182469139092
54,36525,baseline,True,937.6919269487336
55,36525,condition_b,True,127.2135494757112
56,36525,baseline,False,271.2519612391856
57,36525,condition_b,True,237.35005430334644
58,36525,condition_a,False,537.2652893001938
59,36525,condition_a,True,467.0040205726988
60,36525,baseline,True,679.6816077270878
61,36525,condition_a,False,720.8087413001598
62,36525,condition_a,True,1217.9416263656497
63,36525,condition_b,True,902.62737897376
64,36525,condition_b,True,802.3076674452769
65,36525,condition_b,True,531.8075380016314
66,36525,baseline,True,428.1986318571932
67,36525,baseline,True,525.993455450816
68,36525,condition_b,True,269.1191103627886
69,36525,baseline,False,354.0870407831993
70,36525,condition_b,True,444.4318177107368
71,36525,baseline,True,1300.864063475619
72,36525,baseline,False,571.7968685018672
73,36525,condition_b,True,371.9728809340318
74,36525,baseline,True,387.84170114308216
75,36525,baseline,True,321.8261135311556
76,36525,baseline,True,329.4697457312459
77,36525,condition_a,True,598.6385868735368
78,36525,condition_b,True,1184.7033292717952
79,36525,condition_b,True,203.80612681737023
80,36525,condition_a,True,971.4502370915648
81,36525,baseline,True,722.6811630274645
82,36525,baseline,True,616.286845877633
83,36525,condition_a,True,1365.8015420368197
84,36525,condition_a,True,816.1157320633298
85,36525,condition_a,False,708.4535676928768
86,36525,condition_a,True,447.67529147790697
87,36525,baseline,True,597.2264222134305
88,36525,condition_a,True,536.4279428598819
89,36525,baseline,False,421.3683493997216
90,36525,baseline,True,196.08188654192676
91,36525,baseline,False,614.2550791261883
92,36525,baseline,True,619.8511350688804
93,36525,baseline,True,905.0876309623555
94,36525,condition_a,False,631.9015027009652
95,36525,baseline,True,864.6869036747014
96,36525,condition_b,True,429.0038188210931
97,36525,baseline,True,383.4782629646136
98,36525,baseline,False,758.1320223153643
99,36525,condition_b,True,200.8264200048289
100,36525,condition_a,True,385.6131524144035
101,36525,baseline,True,735.2406495383719
102,36525,condition_a,True,787.5295711720803
103,36525,condition_a,True,674.6033089464847
104,36525,condition_b,True,302.89022070996066
105,36525,condition_b,True,612.3513703795323
106,36525,condition_a,True,429.8935492506832
107,36525,baseline,True,328.56843880783
108,36525,condition_a,False,575.4971756489725
109,36525,condition_a,True,1281.9154473186563
110,36525,condition_a,True,687.2787623666295
111,36525,condition_b,True,136.71758301649925
112,36525,baseline,True,387.6285307688626
113,36525,baseline,True,235.4125923608612
114,36525,condition_a,False,701.0549938909335
115,36525,condition_b,True,397.5308717150487
116,36525,condition_a,True,312.0625866658353
117,36525,condition_b,True,370.2187122298066
118,36525,condition_a,True,454.9434929853094
119,36525,condition_b,True,275.7670305131317
0,55240,condition_b,True,215.49253884140472
1,55240,baseline,True,455.5282668101341
2,55240,baseline,True,208.48430191150325
3,55240,condition_b,True,418.788092855852
4,55240,condition_a,True,2425.040515100989
5,55240,condition_a,True,190.77150496505575
6,55240,condition_a,True,531.4547510722089
7,55240,condition_b,True,732.0919851062662
8,55240,condition_a,True,1071.0089065489385
9,55240,baseline,True,73.81884795492742
10,55240,condition_b,True,275.6652377922503
11,55240,condition_b,True,180.92709894236924
12,55240,baseline,True,566.6792706398535
13,55240,condition_b,True,391.7571406759293
14,55240,condition_b,True,675.9243612644373
15,55240,baseline,True,354.6164505801566
16,55240,condition_a,True,198.5455494481781
17,55240,condition_b,True,265.9387902546641
18,55240,baseline,False,572.0187841302023
19,55240,baseline,True,472.2051816152149
20,55240,baseline,True,286.1301576261817
21,55240,baseline,True,818.667124346432
22,55240,condition_b,True,246.82636767337084
23,55240,baseline,True,667.2661737916052
24,55240,baseline,True,188.36398146540503
25,55240,condition_b,True,174.92830941587346
26,55240,condition_b,True,530.332284932826
27,55240,condition_a,True,659.8008261734356
28,55240,condition_b,True,560.3631191314352
29,55240,condition_a,True,425.9063952399894
30,55240,condition_b,True,360.3586522037084
31,55240,baseline,True,110.91232766020576
32,55240,baseline,True,333.4655038102294
33,55240,condition_b,True,353.48266525821765
34,55240,condition_a,True,157.63789330442788
35,55240,baseline,True,239.40582231053529
36,55240,baseline,True,198.90112066918812
37,55240,condition_b,True,283.6078672497178
38,55240,condition_a,True,688.5905495369266
39,55240,baseline,True,287.7812519279304
40,55240,condition_a,True,277.3728909831369
41,55240,condition_a,True,363.41911306840825
42,55240,condition_a,False,425.53101895007177
43,55240,condition_b,True,224.7881374743885
44,55240,baseline,True,211.69377357658027
45,55240,condition_b,True,601.7287417409274
46,55240,baseline,True,373.8478203470645
47,55240,condition_b,True,252.51491046925184
48,55240,condition_b,True,433.4720814730235
49,55240,condition_a,True,624.9158483724984
50,55240,condition_a,True,438.9283234296954
51,55240,baseline,False,187.9648857592248
52,55240,condition_a,True,254.48108329030816
53,55240,baseline,True,863.5308632281789
54,55240,condition_a,True,286.6018856544959
55,55240,baseline,True,667.2583944874631
56,55240,condition_b,True,303.892331994998
57,55240,condition_a,True,733.6918109119453
58,55240,condition_b,True,210.0485245851804
59,55240,condition_b,True,153.78372555071553
60,55240,condition_a,True,578.6121865310668
61,55240,baseline,True,205.7789226852225
62,55240,condition_a,True,227.7763089626476
63,55240,condition_b,True,353.1343349064168
64,55240,condition_a,True,896.5973946821197
65,55240,baseline,True,169.07768380733677
66,55240,condition_b,True,358.7744029187165
67,55240,condition_b,True,251.09634713479792
68,55240,baseline,True,478.8087581708955
69,55240,condition_b,True,177.64908772503256
70,55240,condition_a,True,332.7476554572704
71,55240,baseline,True,220.91655987418355
72,55240,condition_a,True,508.3066838665493
73,55240,baseline,True,693.8257153884579
74,55240,condition_b,True,147.05352522464767
75,55240,condition_a,True,522.2302892622552
76,55240,baseline,True,360.936858519904
77,55240,condition_a,True,895.5321279826841
78,55240,baseline,True,467.4447272300424
79,55240,condition_a,True,753.0736810108341
80,55240,condition_b,True,301.34386544710657
81,55240,baseline,True,205.51766014113383
82,55240,baseline,True,140.9767771176052
83,55240,baseline,False,575.8135017712231
84,55240,baseline,True,228.24026777978764
85,55240,condition_b,True,275.29630825189946
86,55240,condition_a,True,940.3387143776142
87,55240,condition_a,True,573.9915756807874
88,55240,condition_a,True,188.97383081986277
89,55240,condition_b,True,431.2530206953247
90,55240,baseline,True,211.79086717002363
91,55240,baseline,False,383.4541008273582
92,55240,condition_b,True,142.63392527659667
93,55240,baseline,True,151.9976004129304
94,55240,baseline,False,373.8724890190479
95,55240,condition_a,True,356.6418303082195
96,55240,condition_a,False,592.17722651882
97,55240,baseline,False,414.9878263842525
98,55240,condition_a,True,479.405687681683
99,55240,condition_b,True,160.2589819898969
100,55240,condition_a,True,347.3381685293991
101,55240,condition_b,True,718.0555892907961
102,55240,condition_b,True,307.0504459165128
103,55240,baseline,True,257.21222199970134
104,55240,condition_b,True,388.3548139994329
105,55240,condition_a,False,581.7790842098259
106,55240,condition_a,True,905.834517255608
107,55240,condition_a,True,392.2488360236926
108,55240,condition_a,False,491.5438282308478
109,55240,condition_b,True,498.5624878376695
110,55240,condition_a,True,406.2881554663588
111,55240,condition_a,False,891.3578471289924
112,55240,baseline,True,242.35658316373323
113,55240,condition_b,True,297.6020473151356
114,55240,condition_b,False,170.29741111768277
115,55240,condition_b,True,258.6882387388809
116,55240,condition_a,True,528.6134454699226
117,55240,condition_b,True,316.61982096866404
118,55240,baseline,True,376.9746176093375
119,55240,condition_a,True,374.8194061258977
0,32154,baseline,False,466.36627244781096
1,32154,condition_b,True,460.581511348288
2,32154,baseline,True,313.7434810205154
3,32154,condition_a,True,456.17416724746965
4,32154,baseline,True,273.0016823640196
5,32154,condition_b,True,394.87567415677273
6,32154,condition_b,True,267.42287528338005
7,32154,baseline,True,278.7267137426932
8,32154,baseline,True,453.9760982191881
9,32154,condition_b,True,330.9606276329116
10,32154,baseline,True,212.20458647145463
11,32154,baseline,True,572.4961664572041
12,32154,condition_a,True,246.9275627042299
13,32154,baseline,True,565.8907468652754
14,32154,condition_a,True,886.7042113882495
15,32154,baseline,True,176.88949625151702
16,32154,condition_a,False,291.9336521132188
17,32154,baseline,True,465.2307286312748
18,32154,condition_a,True,639.3577040384644
19,32154,condition_b,True,458.3771399477845
20,32154,condition_a,True,559.5640738513343
21,32154,condition_a,True,430.6158184800759
22,32154,condition_a,False,398.3629390267103
23,32154,condition_b,True,793.3217124978931
24,32154,condition_a,True,508.6552956503052
25,32154,baseline,True,405.3959391751965
26,32154,condition_b,True,235.59359220337737
27,32154,baseline,False,482.0165265177648
28,32154,condition_b,True,261.1501981457317
29,32154,condition_b,True,141.82850976677
30,32154,condition_b,True,709.9130175865328
31,32154,condition_a,True,619.6570441661052
32,32154,condition_a,True,361.1035780497076
33,32154,condition_b,True,655.9657673516595
34,32154,condition_a,True,346.3253586478515
35,32154,baseline,True,694.0044409096031
36,32154,condition_a,True,1295.190508655378
37,32154,baseline,False,660.0342455050325
38,32154,condition_a,True,1321.7625553888645
39,32154,condition_b,False,425.0061570153678
40,32154,baseline,True,162.5186928364898
41,32154,condition_a,True,654.3798597501496
42,32154,condition_b,True,412.47865360926806
43,32154,condition_a,True,478.5684032897464
44,32154,baseline,True,893.2005200231874
45,32154,condition_b,True,158.78335983032366
46,32154,condition_b,True,473.2207769852817
47,32154,condition_a,True,786.0545743832527
48,32154,condition_b,True,220.1980922941344
49,32154,baseline,True,590.7751214672595
50,32154,condition_a,True,921.5237279794392
51,32154,condition_a,True,529.6188857561808
52,32154,condition_a,True,933.4051489433996
53,32154,baseline,True,637.2528152744607
54,32154,baseline,True,439.5446256085063
55,32154,condition_a,True,762.2515606232835
56,32154,condition_b,True,810.5886738755719
57,32154,condition_b,True,327.59364935953965
58,32154,condition_a,True,719.986100732354
59,32154,condition_b,True,335.2079032253752
60,32154,baseline,True,289.60626670486124
61,32154,condition_b,True,461.1353764541344
62,32154,condition_a,True,720.9763132046197
63,32154,condition_b,True,322.0081704903872
64,32154,condition_a,False,459.4092772499052
65,32154,condition_a,True,436.2209635738071
66,32154,condition_b,True,330.3611179290854
67,32154,condition_a,True,812.3614641811737
68,32154,condition_b,True,370.9553069803152
69,32154,condition_a,True,1295.8499411874968
70,32154,condition_a,True,311.82257070047456
71,32154,condition_b,True,232.7636747268283
72,32154,baseline,True,493.8717096307334
73,32154,baseline,False,456.7496798767965
74,32154,baseline,True,514.2204045049136
75,32154,baseline,True,202.45783250711068
76,32154,condition_b,True,367.840410420435
77,32154,baseline,True,293.8393990420034
78,32154,condition_a,True,796.8025672820313
79,32154,condition_a,True,309.51070072294243
80,32154,condition_b,True,292.0333948961024
81,32154,condition_a,True,565.3614916916946
82,32154,condition_b,True,179.21381627110202
83,32154,baseline,True,179.9828496912535
84,32154,condition_b,True,326.9543152972556
85,32154,baseline,True,716.9541985351925
86,32154,condition_a,True,225.99796741696184
87,32154,condition_b,True,541.26334272229
88,32154,baseline,True,481.5855202180553
89,32154,condition_a,False,193.20054463887095
90,32154,condition_a,True,519.0083328948434
91,32154,condition_b,True,614.5895060598176
92,32154,condition_b,True,390.21085324983386
93,32154,baseline,False,485.6589895116136
94,32154,baseline,True,285.5194830883729
95,32154,condition_a,False,344.5622239329016
96,32154,condition_b,True,883.0224399660459
97,32154,condition_a,True,1226.2853847456404
98,32154,condition_a,False,216.0204762977123
99,32154,baseline,True,429.1631954023147
100,32154,condition_b,True,223.32134415355043
101,32154,baseline,False,364.4547964495661
102,32154,condition_a,False,621.8755870506895
103,32154,condition_a,True,292.2952587451693
104,32154,baseline,False,485.8598175502123
105,32154,condition_b,True,557.9380207346468
106,32154,baseline,True,488.6883321096365
107,32154,condition_a,True,635.2945496984953
108,32154,condition_b,True,381.1572765162143
109,32154,condition_b,True,167.284988677648
110,32154,baseline,True,111.56367321714696
111,32154,baseline,True,1065.675273669444
112,32154,baseline,True,268.0117891036476
113,32154,condition_b,True,307.77440145417484
114,32154,condition_b,True,90.76804615148532
115,32154,baseline,True,204.4175465486542
116,32154,condition_b,True,214.3810312562445
117,32154,condition_b,True,412.8708748092988
118,32154,baseline,True,469.6176127320233
119,32154,baseline,True,675.1213130612402
0,47294,baseline,True,176.5609295661405
1,47294,condition_a,True,934.8020337378236
2,47294,condition_b,True,611.071788447313
3,47294,condition_a,True,707.5301235819003
4,47294,condition_b,True,456.991814233139
5,47294,condition_b,True,333.88950178729993
6,47294,baseline,True,594.547066898358
7,47294,condition_b,True,404.7130104396
8,47294,condition_a,True,1093.061808187806
9,47294,condition_a,True,443.7263459771612
10,47294,condition_a,True,638.5217060421759
11,47294,baseline,False,845.9318970268346
12,47294,condition_a,True,482.6408564396694
13,47294,baseline,True,696.1851267343513
14,47294,condition_a,True,1353.7746799830293
15,47294,condition_b,True,277.36097260976624
16,47294,condition_a,True,742.5942516088489
17,47294,condition_b,True,457.713435767922
18,47294,condition_b,True,298.8042536936488
19,47294,condition_b,True,363.7878265262661
20,47294,baseline,True,301.26557670199134
21,47294,condition_b,True,816.0959122852041
22,47294,condition_a,True,521.7061413186956
23,47294,baseline,True,392.8430630692204
24,47294,condition_b,True,288.6768358226654
25,47294,condition_a,True,839.478529140529
26,47294,condition_b,True,403.4829548359597
27,47294,baseline,True,933.5012227056188
28,47294,baseline,True,243.9195299102469
29,47294,baseline,True,539.6429431155076
30,47294,condition_b,True,750.0591407788504
31,47294,condition_a,True,245.8386195479681
32,47294,condition_a,True,693.719400001254
33,47294,condition_b,True,376.4923262169871
34,47294,baseline,True,845.6526412502338
35,47294,condition_b,True,311.0290347509657
36,47294,condition_b,False,270.685482030969
37,47294,baseline,True,411.7715403175599
38,47294,condition_b,True,379.7238404694808
39,47294,baseline,False,377.1559705243332
40,47294,condition_b,True,453.6877528522169
41,47294,baseline,True,266.70163045695426
42,47294,condition_a,True,548.5489648336272
43,47294,condition_a,True,732.3313399833597
44,47294,condition_a,True,815.8682216645697
45,47294,condition_b,True,206.94581087162103
46,47294,condition_a,False,385.3711684415298
47,47294,condition_b,True,289.68981444954267
48,47294,baseline,True,241.55539808071788
49,47294,condition_a,True,446.577679761059
50,47294,condition_a,False,784.0399501152444
51,47294,condition_b,True,593.6327731994124
52,47294,baseline,False,246.68985138813696
53,47294,condition_b,True,572.0613953598668
54,47294,baseline,True,474.39847756611033
55,47294,condition_b,True,330.7775156689172
56,47294,condition_b,True,193.53773137887265
57,47294,baseline,True,472.3105826393559
58,47294,condition_a,True,837.4053555663913
59,47294,condition_b,True,657.8935266942175
60,47294,condition_a,True,223.35551788119545
61,47294,condition_b,True,373.9351316078798
62,47294,condition_a,False,400.6848577470201
63,47294,baseline,True,438.5684458137654
64,47294,baseline,False,404.8641458254783
65,47294,condition_b,True,601.5308869432312
66,47294,condition_a,True,493.3127307074061
67,47294,baseline,True,766.9162130083857
68,47294,condition_a,False,1387.767550819766
69,47294,condition_a,True,381.9140693306727
70,47294,condition_a,True,1265.7594771695778
71,47294,condition_a,True,782.9772691077417
72,47294,baseline,True,272.8273221367233
73,47294,condition_b,True,517.7969059517766
74,47294,condition_b,True,249.6531776663492
75,47294,baseline,False,282.7452383599225
76,47294,condition_a,True,296.97027960820253
77,47294,condition_b,True,1350.9829162005913
78,47294,condition_a,True,467.1843562503122
79,47294,condition_a,True,711.6623224061891
80,47294,baseline,True,461.0348715093715
81,47294,condition_a,False,879.5783306112185
82,47294,condition_b,True,231.6086298417651
83,47294,condition_a,True,754.3437772225985
84,47294,baseline,True,556.9879259946796
85,47294,condition_b,True,355.14983419457326
86,47294,condition_b,True,804.0046079238741
87,47294,baseline,True,254.1286162762246
88,47294,condition_b,True,392.83602327056747
89,47294,condition_b,True,480.99836298434303
90,47294,condition_a,True,786.037422895275
91,47294,baseline,True,501.8027227556675
92,47294,baseline,True,430.4555768243608
93,47294,condition_a,True,785.038661520555
94,47294,baseline,True,401.1289199377666
95,47294,baseline,True,365.3959502172977
96,47294,baseline,False,959.6887471319078
97,47294,condition_a,False,1626.1774307854037
98,47294,condition_b,True,561.6252337040869
99,47294,condition_a,True,1842.321566877693
100,47294,baseline,True,744.307821185473
101,47294,baseline,False,782.7391721841126
102,47294,condition_b,True,510.570186832136
103,47294,condition_a,False,357.35430741867526
104,47294,condition_b,True,294.1882829603508
105,47294,baseline,True,899.8811308797541
106,47294,baseline,True,347.0358061065631
107,47294,baseline,True,418.7964816249039
108,47294,baseline,False,366.0240016491582
109,47294,condition_b,True,343.1783314276288
110,47294,condition_a,True,953.3375836827764
111,47294,baseline,False,210.406523241454
112,47294,baseline,True,423.58857264023175
113,47294,condition_a,True,866.5906914896414
114,47294,condition_a,True,662.0205228050942
115,47294,condition_b,True,588.7702806218865
116,47294,baseline,True,327.7741183655445
117,47294,condition_b,True,214.16128503098204
118,47294,baseline,True,420.0049181396628
119,47294,condition_a,True,816.5931907445683
0,23596,baseline,True,615.184117631306
1,23596,condition_b,True,223.13200777621583
2,23596,baseline,True,119.88738288766515
3,23596,condition_b,True,121.84850588876016
4,23596,condition_b,True,228.97308627914333
5,23596,condition_b,True,147.88703783401445
6,23596,condition_a,True,130.50370935363924
7,23596,condition_b,True,200.39305846289687
8,23596,baseline,True,278.74460052017
9,23596,baseline,True,444.79794080719086
10,23596,baseline,True,335.3459265320984
11,23596,condition_b,True,181.40324389213444
12,23596,baseline,True,270.9224395027784
13,23596,condition_a,False,362.132505442837
14,23596,condition_a,True,503.9334644854162
15,23596,baseline,True,375.03384156300586
16,23596,condition_a,True,212.9554529589723
17,23596,condition_b,True,222.16603579471013
18,23596,baseline,True,84.17982715507549
19,23596,baseline,True,202.49028141181543
20,23596,condition_b,True,107.2215042174737
21,23596,condition_a,True,172.4745126967302
22,23596,baseline,True,181.61027965740945
23,23596,condition_b,True,247.50492060862976
24,23596,condition_a,True,601.9047464817829
25,23596,condition_b,True,108.83225076983584
26,23596,condition_b,True,130.84268149677328
27,23596,condition_b,True,311.2664329597813
28,23596,condition_a,True,388.4045683719676
29,23596,condition_a,True,729.1554720027325
30,23596,condition_a,True,865.8698340536001
31,23596,baseline,True,83.43310742902581
32,23596,condition_a,True,463.6416268411594
33,23596,condition_b,True,129.60623407827185
34,23596,condition_b,True,160.8172673340491
35,23596,baseline,True,536.754233548079
36,23596,baseline,True,259.0729247031826
37,23596,condition_a,False,241.470515248244
38,23596,condition_b,True,97.35087023082566
39,23596,condition_b,True,242.76007995375485
40,23596,condition_b,True,227.88775817339783
41,23596,baseline,True,255.2902906352176
42,23596,condition_a,False,279.53895031493386
43,23596,condition_a,True,158.66975985053787
44,23596,condition_b,True,387.2092104856684
45,23596,baseline,True,443.9491195970614
46,23596,baseline,True,241.9576719825825
47,23596,baseline,True,232.72026485152475
48,23596,condition_a,False,386.3242183635674
49,23596,baseline,True,220.34272138215
50,23596,baseline,True,130.08097625936443
51,23596,condition_b,True,437.67361308037584
52,23596,baseline,True,303.2156479658169
53,23596,baseline,True,480.3033660119965
54,23596,condition_b,True,132.58708879965295
55,23596,condition_b,True,170.36137227466304
56,23596,condition_a,True,465.19316022536265
57,23596,baseline,False,393.13117038232167
58,23596,baseline,True,232.1628196412468
59,23596,condition_b,True,285.93373518602766
60,23596,condition_a,True,457.3226151695282
61,23596,condition_a,True,367.9738253711492
62,23596,baseline,True,234.55682828934587
63,23596,condition_b,True,839.017112800276
64,23596,condition_b,True,403.5448776798563
65,23596,condition_a,True,477.7155449883327
66,23596,condition_b,False,185.05883303284443
67,23596,condition_b,True,206.2048191551762
68,23596,condition_b,True,332.3248820733685
69,23596,baseline,True,126.79092550461596
70,23596,condition_a,False,302.5899858165215
71,23596,condition_a,True,494.02826064362085
72,23596,baseline,True,286.25433989959504
73,23596,condition_a,True,317.29302543979964
74,23596,baseline,True,131.0841550803423
75,23596,condition_b,True,134.9809105137139
76,23596,condition_b,True,281.1170433706057
77,23596,condition_a,False,403.8149231718969
78,23596,condition_a,True,277.6257394806443
79,23596,condition_a,True,593.1531834613785
80,23596,condition_b,True,149.89895676473247
81,23596,condition_a,True,284.3816695059653
82,23596,condition_a,False,218.2946207698116
83,23596,baseline,True,195.7549851142456
84,23596,condition_a,True,593.7856283114177
85,23596,condition_a,True,493.8314656757946
86,23596,condition_a,True,309.4740534846717
87,23596,baseline,True,187.6685126689544
88,23596,condition_a,True,287.3905474980112
89,23596,condition_b,False,139.3050321739833
90,23596,baseline,False,577.2005857951748
91,23596,baseline,True,386.9830051531095
92,23596,condition_b,True,88.2921001716191
93,23596,baseline,False,370.7176419506479
94,23596,baseline,True,835.6109750492802
95,23596,baseline,False,246.02554341263615
96,23596,condition_a,False,341.2959083681842
97,23596,baseline,False,193.0103288964412
98,23596,condition_b,True,251.5703187871175
99,23596,condition_b,True,236.58681011691243
100,23596,baseline,True,209.8291239931877
101,23596,condition_b,True,204.939636297837
102,23596,condition_b,True,202.44489237858392
103,23596,condition_a,False,299.83605346718525
104,23596,condition_a,True,376.4205153845379
105,23596,condition_a,True,460.1488916813073
106,23596,condition_a,True,137.79758158938716
107,23596,baseline,False,115.8580604494601
108,23596,baseline,True,167.5960748876939
109,23596,condition_a,True,296.09858974845207
110,23596,condition_b,True,196.55025062018137
111,23596,condition_b,True,404.13711096867104
112,23596,condition_a,True,499.5413950061564
113,23596,condition_a,True,694.1266466420026
114,23596,baseline,True,299.2840091688368
115,23596,condition_a,True,352.2311164817143
116,23596,baseline,True,158.07615324487531
117,23596,condition_b,True,157.63021996367846
118,23596,condition_a,True,233.10187843036505
119,23596,condition_b,True,267.8460316664808
0,70156,baseline,False,379.01171569798765
1,70156,baseline,True,408.5484030154336
2,70156,condition_b,True,404.40189538179146
3,70156,baseline,True,302.6197612672639
4,70156,condition_a,True,1442.5317382877315
5,70156,baseline,True,418.1245245964091
6,70156,condition_a,True,424.4997197134604
7,70156,condition_a,True,110.15266037767908
8,70156,condition_a,True,1555.8252843939572
9,70156,condition_b,False,976.2093264897374
10,70156,baseline,True,411.3030650123859
11,70156,condition_b,True,330.49438941073885
12,70156,condition_a,False,319.4756522804256
13,70156,baseline,True,402.8545129124621
14,70156,baseline,True,655.1482897450715
15,70156,condition_a,False,649.3607566179393
16,70156,condition_a,True,607.9072588277655
17,70156,condition_b,True,266.8957154276996
18,70156,condition_b,True,435.3236733529098
19,70156,condition_a,False,587.6121242559622
20,70156,condition_a,True,1218.6608695015152
21,70156,condition_a,False,352.89708805097536
22,70156,condition_b,True,203.0075260082364
23,70156,condition_a,True,320.1009576037638
24,70156,baseline,True,364.0599038043901
25,70156,baseline,True,102.03205497120231
26,70156,baseline,True,320.2121986694395
27,70156,condition_a,True,551.2017371169447
28,70156,condition_a,True,771.9876682705466
29,70156,condition_a,False,447.2615943150116
30,70156,condition_a,False,670.9516254895228
31,70156,baseline,True,307.6263032448514
32,70156,baseline,True,386.1018984612279
33,70156,baseline,True,155.2376255124893
34,70156,baseline,True,405.9457081378652
35,70156,baseline,True,553.9887584692607
36,70156,condition_b,True,181.08511277105083
37,70156,condition_b,True,239.610388252004
38,70156,condition_a,True,392.4136399773639
39,70156,baseline,True,1419.3885787295062
40,70156,condition_a,True,372.6842135172434
41,70156,condition_b,True,337.47455222805064
42,70156,condition_a,True,604.2004794355372
43,70156,condition_b,True,426.1643316104174
44,70156,condition_b,True,149.32041220637055
45,70156,baseline,False,1130.0920397231373
46,70156,condition_a,True,463.11522435325287
47,70156,condition_a,True,921.208889954458
48,70156,baseline,True,292.1706919775765
49,70156,condition_b,True,363.7181475912674
50,70156,condition_b,True,1231.2370200374169
51,70156,baseline,True,489.3528294979672
52,70156,condition_a,True,472.4050449579277
53,70156,condition_b,True,263.63238556447675
54,70156,condition_b,True,118.22451810396169
55,70156,condition_b,True,245.9972675557864
56,70156,condition_a,True,389.9030001648744
57,70156,baseline,True,295.41625269704474
58,70156,condition_b,True,153.4435594217537
59,70156,baseline,True,1114.067255663004
60,70156,baseline,True,515.8643335956002
61,70156,condition_b,True,335.1919635190901
62,70156,condition_a,False,408.61715395137867
63,70156,condition_a,True,626.763084233038
64,70156,baseline,False,235.45728899418356
65,70156,condition_a,True,872.1917441753807
66,70156,condition_a,True,1161.8524186192926
67,70156,condition_b,True,211.51847500607343
68,70156,baseline,True,331.2906073608845
69,70156,baseline,True,499.6145546388074
70,70156,condition_a,True,329.6948118687882
71,70156,baseline,True,366.02064245066185
72,70156,condition_b,True,374.7271749325736
73,70156,condition_b,True,185.52265590545244
74,70156,condition_a,True,551.4969525720779
75,70156,condition_a,True,895.1890044671802
76,70156,condition_b,True,308.9557520902285
77,70156,condition_a,True,2366.919453584155
78,70156,condition_b,True,289.0017604548133
79,70156,condition_a,True,585.2989768225913
80,70156,baseline,True,530.6195806244101
81,70156,condition_b,True,298.30253684259617
82,70156,baseline,True,485.7748284198651
83,70156,condition_a,False,160.38408434318262
84,70156,condition_b,True,385.0614537080365
85,70156,condition_a,True,881.9794527735847
86,70156,condition_a,True,352.3743881402195
87,70156,baseline,True,372.6700903521229
88,70156,condition_b,True,385.2152087831683
89,70156,condition_b,True,266.96227436715265
90,70156,condition_a,False,602.840822671137
91,70156,condition_a,True,389.0086605369192
92,70156,baseline,True,401.73344694853193
93,70156,baseline,True,357.67823285336186
94,70156,baseline,True,540.5917487055264
95,70156,condition_b,True,187.9010703779097
96,70156,condition_b,True,189.01735450897127
97,70156,condition_b,True,220.43236805872576
98,70156,condition_a,True,614.8297081326929
99,70156,condition_b,True,346.22181386390884
100,70156,condition_b,True,368.8491500272215
101,70156,baseline,True,255.09371745538112
102,70156,condition_b,True,506.0733712428185
103,70156,baseline,True,235.2487327614983
104,70156,condition_b,True,385.86923830254506
105,70156,baseline,True,877.3082873399736
106,70156,condition_b,True,432.90315192555727
107,70156,condition_a,True,373.2210140822862
108,70156,baseline,True,134.65664110485173
109,70156,baseline,True,308.0115246611156
110,70156,condition_b,True,352.07437628132163
111,70156,condition_b,True,360.5734413756021
112,70156,condition_b,True,332.16150734399366
113,70156,baseline,True,548.7181697274953
114,70156,baseline,True,296.91587250758414
115,70156,condition_a,True,862.0339416146408
116,70156,baseline,False,323.815551579124
117,70156,condition_b,True,286.15208408562745
118,70156,condition_b,True,319.148528362308
119,70156,condition_a,False,750.6676840723107
0,22134,condition_a,True,634.2356366684517
1,22134,condition_b,True,852.337904696887
2,22134,baseline,True,573.9695398055086
3,22134,condition_a,True,2084.4257602676985
4,22134,baseline,True,294.6699820294909
5,22134,condition_b,True,189.7123201601259
6,22134,baseline,True,366.3472328503552
7,22134,condition_a,True,624.6392333001322
8,22134,condition_b,True,401.4864922668485
9,22134,condition_b,True,476.8880160945045
10,22134,baseline,True,554.1958268936257
11,22134,condition_b,True,498.7366881009283
12,22134,baseline,False,440.8328426212371
13,22134,baseline,True,368.0360637638077
14,22134,baseline,True,392.1452522228388
15,22134,condition_b,True,199.2595357963144
16,22134,condition_a,True,794.1141422266252
17,22134,condition_a,True,633.4495464549481
18,22134,baseline,True,459.2402443868915
19,22134,condition_b,True,609.336104618898
20,22134,condition_a,True,644.2643389651499
21,22134,condition_b,True,869.0488948766687
22,22134,baseline,False,496.20156093631454
23,22134,condition_a,True,355.58692607391674
24,22134,condition_a,True,660.8178762122507
25,22134,condition_a,True,778.8222495973215
26,22134,baseline,True,433.5678978149522
27,22134,baseline,True,1534.1632072676075
28,22134,baseline,True,765.135912408227
29,22134,condition_a,True,928.8265752168244
30,22134,baseline,True,551.5560827095265
31,22134,condition_a,False,568.8124201407953
32,22134,baseline,True,1177.0660323604186
33,22134,condition_b,True,507.4544223591427
34,22134,condition_b,True,355.57791092709897
35,22134,baseline,False,554.1429618122922
36,22134,condition_b,True,201.93546873221896
37,22134,condition_a,True,1165.3866745307248
38,22134,condition_b,True,384.7489424087863
39,22134,condition_b,True,298.92203513767004
40,22134,baseline,True,528.7780494575447
41,22134,condition_a,False,627.6814680934408
42,22134,condition_b,True,349.08596370535435
43,22134,condition_b,True,457.8572805120045
44,22134,baseline,True,628.2766329975788
45,22134,baseline,False,456.1856276759674
46,22134,condition_b,True,1074.5313885943754
47,22134,baseline,True,1182.3892824269617
48,22134,baseline,True,560.2182855802822
49,22134,condition_b,True,193.6134432174284
50,22134,condition_a,False,1340.8151740244298
51,22134,condition_b,True,400.2995968018465
52,22134,baseline,True,359.6859964893946
53,22134,condition_a,False,1222.3509421876129
54,22134,condition_a,True,766.0238350562122
55,22134,condition_a,True,334.17522710905354
56,22134,condition_a,True,1488.719593117567
57,22134,condition_a,True,601.5374424995309
58,22134,condition_a,False,1170.3918982156226
59,22134,condition_a,True,1237.362382206622
60,22134,condition_b,True,466.98986581687694
61,22134,condition_a,True,501.9603380452222
62,22134,condition_a,True,629.2443798149976
63,22134,baseline,True,512.9927958784251
64,22134,baseline,True,780.0858149933124
65,22134,condition_a,True,800.8333969690051
66,22134,condition_b,True,654.9105921854897
67,22134,condition_b,True,321.1519939029964
68,22134,condition_b,True,315.3693913025549
69,22134,condition_b,False,283.1374845146109
70,22134,condition_b,True,555.1360183192712
71,22134,condition_a,True,501.7380558928326
72,22134,baseline,False,520.7845062511908
73,22134,condition_a,True,1196.9315686571351
74,22134,condition_a,False,929.2152301678058
75,22134,baseline,False,363.857384069622
76,22134,baseline,True,255.3164255217193
77,22134,condition_b,True,2064.0892189220917
78,22134,condition_b,True,1030.7828479697228
79,22134,baseline,False,810.3921842368463
80,22134,condition_a,True,1211.5098371632962
81,22134,condition_b,True,788.1659846504426
82,22134,baseline,True,939.7494863452856
83,22134,condition_b,True,543.1043264474715
84,22134,baseline,True,362.4991818305895
85,22134,condition_b,True,204.39535365454304
86,22134,condition_a,True,408.0926167242187
87,22134,baseline,True,430.7353822432731
88,22134,condition_a,True,533.2048207185387
89,22134,condition_a,True,649.0458898868137
90,22134,baseline,True,519.6441324969597
91,22134,baseline,True,772.4267917951415
92,22134,condition_a,True,1159.6244903682627
93,22134,condition_b,True,678.9995301762428
94,22134,condition_b,True,673.5304439727336
95,22134,condition_a,True,493.2904853577732
96,22134,condition_b,True,514.6005353029898
97,22134,condition_a,False,800.3182862698388
98,22134,baseline,True,579.2596266852822
99,22134,condition_b,True,591.7608742280092
100,22134,baseline,True,851.7674454069623
101,22134,condition_b,True,429.47329112468856
102,22134,baseline,True,968.6359301833764
103,22134,condition_a,False,859.1176402818047
104,22134,condition_a,True,2155.089759475715
105,22134,baseline,True,215.87927934980883
106,22134,baseline,True,1730.5678868111502
107,22134,condition_a,True,480.4125022200009
108,22134,condition_a,True,1029.8021247062277
109,22134,condition_b,True,666.6821568567989
110,22134,baseline,True,1855.0080416828196
111,22134,baseline,False,810.3843745131846
112,22134,condition_b,True,459.2195035424077
113,22134,condition_b,True,604.1982226592123
114,22134,baseline,True,533.1483849400263
115,22134,condition_b,True,178.87688799306386
116,22134,condition_b,True,282.253298526124
117,22134,condition_a,True,669.2736684302856
118,22134,condition_b,True,349.5069117351634
119,22134,condition_a,True,1004.5516875784664
0,98940,baseline,True,545.3877621686648
1,98940,baseline,False,436.7922933609682
2,98940,condition_b,True,476.9838762410772
3,98940,baseline,True,261.66476389475554
4,98940,condition_b,True,314.62151744788184
5,98940,condition_b,True,689.9471041749416
6,98940,condition_b,True,653.7228369780648
7,98940,condition_a,True,1983.888148134676
8,98940,condition_a,False,1542.298016282016
9,98940,condition_a,True,2281.4708034863334
10,98940,baseline,True,984.841633471654
11,98940,condition_b,True,494.1623107850292
12,98940,condition_a,True,912.2843287979202
13,98940,condition_a,True,787.0487969161512
14,98940,condition_a,True,327.31139016046126
15,98940,condition_a,False,570.3449241023361
16,98940,condition_a,False,1040.2517977563866
17,98940,condition_a,True,926.70495770145
18,98940,condition_b,True,814.1594525830064
19,98940,condition_a,False,506.2824038268735
20,98940,condition_b,True,438.6722024733083
21,98940,condition_a,True,1075.3785433351693
22,98940,baseline,True,180.8682939626912
23,98940,baseline,True,605.4922266401726
24,98940,condition_b,True,415.27010389163536
25,98940,baseline,True,206.38863461679065
26,98940,baseline,True,614.1044586110739
27,98940,baseline,True,701.3612382473818
28,98940,condition_a,True,1041.8096517165372
29,98940,condition_a,False,792.020991110679
30,98940,condition_a,True,2416.5694009352846
31,98940,condition_a,False,960.5165472159972
32,98940,baseline,True,564.5112795496867
33,98940,condition_b,True,428.7121846421993
34,98940,baseline,True,481.20425176006216
35,98940,baseline,True,622.1014654501514
36,98940,baseline,True,1012.754029971169
37,98940,baseline,True,581.3081036861132
38,98940,baseline,True,424.5032730626404
39,98940,baseline,False,579.1382437496279
40,98940,condition_a,True,570.2354052919819
41,98940,baseline,True,591.6132200559823
42,98940,baseline,True,379.1118462551814
43,98940,condition_a,False,348.8503888723395
44,98940,condition_b,True,891.6663861072282
45,98940,condition_a,True,843.8227080288676
46,98940,condition_a,False,682.5199549247324
47,98940,condition_a,True,605.3920774083022
48,98940,baseline,True,350.7612796672039
49,98940,condition_b,True,447.2424407747622
50,98940,condition_b,True,618.478828357469
51,98940,condition_a,True,673.1837270098978
52,98940,condition_a,False,448.5982212675758
53,98940,condition_b,True,1184.4811201401224
54,98940,condition_a,True,1956.5449273828492
55,98940,baseline,True,664.068789361731
56,98940,baseline,True,494.8045912360771
57,98940,condition_a,False,914.5459429028016
58,98940,baseline,True,1176.7535446471734
59,98940,condition_a,False,1169.0503182588193
60,98940,condition_a,False,761.7333658552523
61,98940,condition_b,True,435.39355877073774
62,98940,baseline,True,1314.9470549545115
63,98940,baseline,True,672.0795389450066
64,98940,baseline,True,610.1529292745488
65,98940,baseline,True,462.40115674451016
66,98940,condition_a,False,1073.4064932008837
67,98940,condition_b,True,514.1294553866438
68,98940,condition_a,True,1543.6929471941523
69,98940,condition_b,True,958.8453474796772
70,98940,condition_b,True,555.6348720210135
71,98940,baseline,True,216.55113220588723
72,98940,condition_b,True,818.1840715167908
73,98940,condition_a,True,915.205707951683
74,98940,condition_a,False,372.6154591056084
75,98940,condition_b,True,562.9324286634179
76,98940,baseline,True,418.0220083939507
77,98940,condition_b,True,948.7666285840296
78,98940,condition_a,True,1133.9533403427308
79,98940,condition_a,False,769.1071824667127
80,98940,condition_b,True,335.5511663073959
81,98940,condition_a,False,1033.3903424614086
82,98940,condition_b,True,564.3706136432514
83,98940,condition_b,True,283.10866973818014
84,98940,condition_b,True,529.3722633796505
85,98940,baseline,True,843.5556795476002
86,98940,condition_b,True,578.7331758046197
87,98940,baseline,True,546.7122062215451
88,98940,baseline,True,600.4945046645796
89,98940,baseline,False,204.26356504899303
90,98940,condition_b,True,441.47537319595335
91,98940,condition_b,False,1011.2170335708424
92,98940,baseline,True,764.7439037783378
93,98940,baseline,False,785.595042142737
94,98940,condition_b,True,597.7855375225432
95,98940,condition_b,True,346.9229972650075
96,98940,condition_a,True,648.61405022335
97,98940,baseline,True,320.0936465662491
98,98940,condition_b,True,1331.6450099712529
99,98940,condition_a,False,426.8878969171879
100,98940,condition_b,True,236.8853376030098
101,98940,condition_b,True,492.8066600274267
102,98940,condition_a,True,1707.842055461703
103,98940,condition_b,True,486.038408402305
104,98940,baseline,False,1198.5259257578527
105,98940,condition_b,True,224.46853476866755
106,98940,condition_b,True,479.09438030484097
107,98940,condition_a,True,590.2768827715759
108,98940,baseline,True,341.8032150787336
109,98940,condition_a,True,771.4312970665874
110,98940,condition_a,True,1040.4230614265766
111,98940,condition_b,True,834.7589445981027
112,98940,baseline,True,429.4835816005052
113,98940,condition_b,True,219.6283612937104
114,98940,condition_a,False,775.5034719088161
115,98940,baseline,True,306.17474258174053
116,98940,condition_b,True,1670.9033495181009
117,98940,condition_b,True,436.5111766849837
118,98940,condition_b,True,726.2016378601475
119,98940,baseline,False,407.6828147560181
0,33835,condition_a,True,755.9623698282797
1,33835,baseline,True,203.74711022645968
2,33835,condition_b,True,369.3153123356767
3,33835,condition_a,True,712.3633947122578
4,33835,condition_b,True,647.8295605408791
5,33835,condition_b,True,272.8450752927613
6,33835,baseline,True,367.7607581982249
7,33835,condition_b,True,474.2315834322095
8,33835,baseline,False,162.44084813598462
9,33835,baseline,True,371.2496012822665
10,33835,condition_b,True,567.0497212849968
11,33835,baseline,True,497.4183369172218
12,33835,condition_a,True,866.3854695621333
13,33835,condition_a,True,360.33356949061033
14,33835,condition_a,True,667.725198286802
15,33835,condition_b,True,537.1679997514474
16,33835,baseline,True,418.8077405947575
17,33835,condition_a,False,290.8246658524088
18,33835,condition_b,True,292.10627675789124
19,33835,condition_a,True,481.8533527641684
20,33835,baseline,True,778.2353153790779
21,33835,condition_b,True,435.3298305646314
22,33835,baseline,False,309.34804682072985
23,33835,condition_b,True,806.367455698263
24,33835,condition_a,True,786.6525023279683
25,33835,condition_a,True,1781.8891040070532
26,33835,baseline,False,198.1014130897691
27,33835,baseline,True,676.3073896943702
28,33835,condition_b,True,724.7912867843642
29,33835,condition_b,True,874.3838827508906
30,33835,condition_b,True,296.21497315703243
31,33835,condition_a,True,1145.7825843565151
32,33835,baseline,False,1896.290579297735
33,33835,condition_b,True,267.5110329857788
34,33835,condition_a,True,440.3801071002149
35,33835,condition_b,True,531.4954954660418
36,33835,baseline,False,878.571911431933
37,33835,baseline,True,206.64047649543815
38,33835,baseline,True,289.1215240888092
39,33835,condition_b,True,1019.2023089666704
40,33835,condition_a,True,1206.5906911680818
41,33835,condition_a,True,519.5371280069274
42,33835,baseline,True,567.923359425337
43,33835,condition_a,True,1953.4863957416017
44,33835,condition_b,True,489.4110236706236
45,33835,baseline,True,443.5858584486552
46,33835,condition_a,False,238.1026064758013
47,33835,condition_b,True,160.66623048533248
48,33835,baseline,False,390.9593564742779
49,33835,baseline,False,438.2119910224438
50,33835,baseline,True,684.3383867333962
51,33835,baseline,True,315.733245160294
52,33835,condition_a,True,1700.159959031178
53,33835,condition_b,False,324.14929644202465
54,33835,condition_b,True,755.4899574832153
55,33835,condition_a,True,1066.2073476541927
56,33835,baseline,True,322.5994996064216
57,33835,condition_a,True,623.8774255992229
58,33835,baseline,True,495.3425597178579
59,33835,condition_b,True,211.8133938777034
60,33835,condition_b,True,506.1403348749354
61,33835,condition_a,False,556.6234544942777
62,33835,condition_b,True,313.59660799613664
63,33835,condition_b,True,586.2345616985122
64,33835,baseline,False,257.83907959132284
65,33835,condition_a,True,549.4250631443866
66,33835,baseline,True,906.6566117582106
67,33835,condition_a,True,745.8521751750716
68,33835,baseline,True,367.6629183621325
69,33835,condition_b,True,141.57228940492143
70,33835,baseline,False,834.0520039652228
71,33835,baseline,True,311.5504580289535
72,33835,condition_b,True,595.3145023748577
73,33835,condition_a,True,776.7913697860273
74,33835,condition_b,False,584.6869082589578
75,33835,baseline,False,532.2033661303249
76,33835,condition_a,False,1560.091385214642
77,33835,condition_b,True,284.7636058056481
78,33835,condition_b,True,292.87580337177275
79,33835,baseline,False,339.5342119601155
80,33835,condition_b,True,106.49101189108056
81,33835,baseline,False,483.3418659285749
82,33835,condition_b,True,778.3796249229064
83,33835,condition_a,True,661.5667585043542
84,33835,condition_b,True,243.1541604038647
85,33835,baseline,True,312.407373889845
86,33835,condition_a,True,935.2660719072994
87,33835,condition_b,True,268.35432944727785
88,33835,condition_b,True,489.18379057159314
89,33835,condition_b,True,278.0745449770771
90,33835,condition_a,True,589.2012885958736
91,33835,condition_a,False,674.3619991905177
92,33835,condition_a,True,663.0764575455563
93,33835,baseline,True,547.8672510405972
94,33835,condition_a,False,556.6237278160354
95,33835,condition_b,True,334.607407054887
96,33835,condition_b,True,467.5783300438845
97,33835,condition_a,True,1952.0750801165632
98,33835,baseline,False,489.3586628749879
99,33835,baseline,True,351.5420217632947
100,33835,condition_a,True,1728.5260936774246
101,33835,condition_a,False,320.71531383422854
102,33835,condition_a,True,492.9303953088119
103,33835,condition_a,True,1623.4262388032903
104,33835,condition_a,True,2084.5398498129334
105,33835,baseline,True,496.0662365086656
106,33835,baseline,True,692.4963864767574
107,33835,condition_a,True,553.8150140983115
108,33835,condition_a,True,758.2802991863637
109,33835,baseline,True,473.950058362237
110,33835,condition_b,True,217.8079461533094
111,33835,condition_b,True,243.59185879446596
112,33835,condition_a,True,453.8138509298335
113,33835,condition_b,True,339.31712406000065
114,33835,baseline,True,541.1477514411885
115,33835,condition_b,True,577.1768236358987
116,33835,condition_a,True,808.8441645680165
117,33835,condition_a,True,987.0178651955694
118,33835,baseline,True,665.3014179398632
119,33835,baseline,True,431.72982474634506
0,50198,condition_a,True,371.8108279797124
1,50198,condition_a,True,1720.2516523044178
2,50198,baseline,True,433.36495622218473
3,50198,condition_b,True,350.77984352407225
4,50198,baseline,True,403.7198406761327
5,50198,baseline,True,359.64671984385984
6,50198,condition_a,False,734.1020737496126
7,50198,baseline,True,317.4611025507677
8,50198,baseline,False,483.7988378114999
9,50198,condition_b,True,392.7714519069054
10,50198,condition_a,False,357.5141221246312
11,50198,condition_a,True,228.40002584512385
12,50198,condition_b,True,447.02717523504
13,50198,condition_b,True,594.9680506428168
14,50198,baseline,True,226.59714847818563
15,50198,condition_a,False,404.8010802817345
16,50198,condition_a,False,868.6007038713043
17,50198,condition_a,True,882.5118685686709
18,50198,baseline,True,217.27454159402504
19,50198,condition_a,True,282.7460324738164
20,50198,condition_b,True,715.8641836454531
21,50198,condition_a,True,803.0538890944114
22,50198,condition_b,True,500.33927253178376
23,50198,condition_a,True,458.24158522761087
24,50198,baseline,True,102.98620148195414
25,50198,condition_b,True,153.30558709571932
26,50198,condition_b,True,211.208231117799
27,50198,condition_b,True,371.05483712307847
28,50198,condition_a,True,480.4749889967839
29,50198,condition_a,False,378.0767393365268
30,50198,condition_a,False,309.8867804331508
31,50198,condition_a,True,216.5840335327922
32,50198,baseline,False,549.5498216340791
33,50198,condition_b,True,204.63070703281653
34,50198,condition_b,True,212.18044600036575
35,50198,condition_b,True,597.816524574306
36,50198,condition_b,True,599.4971257709142
37,50198,condition_b,True,298.20548129985013
38,50198,condition_b,True,135.29418584643588
39,50198,condition_b,True,179.62181660870328
40,50198,condition_a,True,724.2577346971293
41,50198,baseline,True,213.3658063326132
42,50198,condition_a,True,259.9528550304231
43,50198,condition_a,True,314.7230496322369
44,50198,condition_a,False,560.8040048623508
45,50198,condition_b,True,374.1326993628689
46,50198,condition_b,True,356.94959468344376
47,50198,condition_b,True,340.29001130684827
48,50198,condition_a,True,603.2904007071965
49,50198,condition_b,True,385.9990531019626
50,50198,baseline,False,450.6508525202096
51,50198,condition_b,True,123.76671804289572
52,50198,baseline,True,424.8545877498533
53,50198,condition_b,True,258.9681617939921
54,50198,condition_a,False,853.8649613011469
55,50198,condition_b,True,315.7328932008411
56,50198,condition_b,True,396.5489500760562
57,50198,baseline,True,134.15220932508709
58,50198,condition_b,True,312.8832597946824
59,50198,condition_a,True,477.45424962304
60,50198,condition_b,True,305.061434085382
61,50198,condition_a,False,162.67404892359815
62,50198,condition_b,True,192.8447998293231
63,50198,baseline,True,656.0708488773281
64,50198,baseline,True,652.2066026054903
65,50198,condition_b,True,222.55717720204268
66,50198,condition_b,True,261.71921089150715
67,50198,baseline,True,546.1415147616856
68,50198,condition_a,True,298.0631892757622
69,50198,condition_a,True,420.87877856767255
70,50198,baseline,True,201.27528568173588
71,50198,baseline,True,308.27786415967574
72,50198,baseline,True,321.9524964680776
73,50198,baseline,True,371.3135238143687
74,50198,condition_a,True,455.4261417812609
75,50198,baseline,True,206.2093824263672
76,50198,baseline,False,363.41556159565175
77,50198,condition_a,True,552.241508815356
78,50198,condition_b,True,209.1673311073557
79,50198,condition_a,True,199.4865116760983
80,50198,baseline,True,348.0392761095279
81,50198,baseline,True,421.9167129169074
82,50198,baseline,True,585.2269028594569
83,50198,condition_a,True,689.4342153276392
84,50198,condition_a,True,205.5414598338362
85,50198,condition_b,False,289.07749728829566
86,50198,baseline,True,642.9988136992648
87,50198,baseline,True,335.8628112604497
88,50198,baseline,True,347.1031971660712
89,50198,baseline,True,278.83838687182543
90,50198,baseline,True,193.30906204493735
91,50198,condition_a,True,1649.4319451703036
92,50198,baseline,True,486.1692891863418
93,50198,condition_a,True,441.9671385834597
94,50198,baseline,True,508.74063647716906
95,50198,condition_b,True,227.77776523705484
96,50198,baseline,True,225.8642161759106
97,50198,condition_b,True,695.2150770833096
98,50198,condition_b,True,229.63887837779689
99,50198,condition_a,True,580.1735471918349
100,50198,condition_a,True,501.95783120598537
101,50198,condition_b,True,186.76889755060571
102,50198,baseline,False,293.31582374994747
103,50198,condition_b,True,303.5874205777649
104,50198,condition_b,True,289.85564990277214
105,50198,baseline,True,329.49644813999845
106,50198,condition_b,False,467.09280181363033
107,50198,condition_a,False,289.40336037877927
108,50198,condition_a,False,190.40683269822216
109,50198,condition_a,True,571.7665353063439
110,50198,baseline,True,178.65507373193262
111,50198,condition_b,True,261.2059069820773
112,50198,condition_a,True,328.459286468367
113,50198,condition_a,True,488.9761968564693
114,50198,condition_b,True,322.99941790747795
115,50198,condition_a,True,576.4931466743303
116,50198,baseline,True,94.93686771912816
117,50198,baseline,True,461.7472160190457
118,50198,baseline,True,399.0208848269549
119,50198,baseline,False,393.4875712720202
0,54594,condition_a,True,2096.6859376029365
1,54594,condition_a,True,379.8285756998185
2,54594,condition_a,False,333.8983293300729
3,54594,condition_a,True,1358.0526032306102
4,54594,baseline,True,136.76197801297673
5,54594,condition_a,False,873.0698376617219
6,54594,baseline,True,1084.1291050386624
7,54594,condition_a,True,517.0198340744703
8,54594,baseline,True,633.1619068587942
9,54594,baseline,True,557.1107478262588
10,54594,baseline,True,416.39504486392593
11,54594,condition_a,True,807.5981221683584
12,54594,baseline,False,816.4162956406694
13,54594,condition_a,True,1028.6956050013323
14,54594,condition_a,True,288.6873496127309
15,54594,baseline,True,177.4865796043409
16,54594,baseline,False,634.4315332110434
17,54594,baseline,True,242.49932193712323
18,54594,baseline,True,310.60527170172503
19,54594,condition_a,True,2370.7972406534573
20,54594,baseline,True,564.6889290059634
21,54594,condition_b,True,292.8942962652941
22,54594,condition_b,True,426.913666877584
23,54594,baseline,False,451.7623547821735
24,54594,condition_a,True,905.3461228800064
25,54594,condition_b,True,514.9315378010002
26,54594,condition_a,True,1416.4595345696862
27,54594,condition_a,True,777.2224396886231
28,54594,baseline,False,670.3485895452551
29,54594,condition_b,True,397.6398599592989
30,54594,condition_a,True,1075.314833118563
31,54594,condition_a,True,1039.3920872572337
32,54594,baseline,True,389.2768306115793
33,54594,condition_a,True,1776.7002666068192
34,54594,condition_a,True,889.9480691455346
35,54594,baseline,True,347.0386389688259
36,54594,condition_a,True,1089.4120225663078
37,54594,condition_a,True,662.7973150995892
38,54594,condition_b,True,369.741064767767
39,54594,condition_b,True,605.9210447248158
40,54594,baseline,True,140.2667027442226
41,54594,baseline,True,403.727141199232
42,54594,condition_a,True,450.8442046664394
43,54594,condition_b,True,216.45011372817785
44,54594,condition_a,True,1168.7180765658752
45,54594,condition_a,True,477.2314118720676
46,54594,condition_a,True,2032.823375943854
47,54594,condition_a,True,927.7509394911606
48,54594,condition_b,True,604.5848125852068
49,54594,condition_a,True,1100.3164110565308
50,54594,baseline,True,274.36554449005416
51,54594,condition_b,True,997.8780553530202
52,54594,baseline,True,809.8882392505494
53,54594,condition_a,True,457.8254265347065
54,54594,baseline,True,338.0369790246534
55,54594,condition_b,True,357.0821998954586
56,54594,condition_a,True,285.29924610816937
57,54594,condition_a,True,807.3060323798787
58,54594,condition_a,False,928.954195107946
59,54594,condition_b,True,239.60702835760395
60,54594,baseline,True,538.0152065238026
61,54594,condition_b,True,507.3970800862832
62,54594,condition_b,True,768.5491510339548
63,54594,baseline,True,605.0180797315267
64,54594,condition_b,True,241.76506698047277
65,54594,condition_b,True,508.9613579720688
66,54594,condition_a,True,820.7734007747939
67,54594,baseline,True,1021.6067692764424
68,54594,condition_a,True,668.2138014480902
69,54594,condition_b,True,227.9004124523926
70,54594,baseline,True,959.7291675238796
71,54594,condition_b,True,1769.277647465365
72,54594,baseline,True,484.5476714812174
73,54594,condition_b,True,689.6754101306387
74,54594,baseline,True,394.01253275059247
75,54594,condition_b,True,776.461147304134
76,54594,condition_b,True,828.4608513333212
77,54594,baseline,True,884.0019417761041
78,54594,condition_b,True,534.632304677777
79,54594,condition_b,True,606.3746164916055
80,54594,condition_b,True,448.639656523808
81,54594,condition_a,True,370.1343780320205
82,54594,condition_b,True,764.4349120488795
83,54594,condition_b,True,776.7872492280217
84,54594,baseline,True,684.3494863553965
85,54594,condition_a,False,638.2167671429056
86,54594,baseline,False,417.1122214633504
87,54594,condition_a,True,525.9034433359474
88,54594,condition_b,False,289.4875732904366
89,54594,baseline,True,401.8737394795988
90,54594,condition_b,True,364.4601913956001
91,54594,condition_a,True,1505.4981594889052
92,54594,condition_b,True,319.6291781371056
93,54594,condition_a,False,754.4570529552539
94,54594,baseline,True,469.73286495042765
95,54594,condition_a,True,1604.7510293058403
96,54594,condition_a,False,322.1882346744782
97,54594,baseline,True,759.84450548419
98,54594,baseline,True,575.1349454964413
99,54594,baseline,False,571.7531798542303
100,54594,baseline,True,877.2628408225303
101,54594,condition_a,False,576.4450490258833
102,54594,condition_b,True,385.27822853031074
103,54594,condition_b,True,967.4280658370044
104,54594,condition_b,True,697.0065903207377
105,54594,baseline,False,848.7682872073269
106,54594,baseline,True,284.6034164732109
107,54594,condition_b,True,255.4656135102268
108,54594,condition_b,True,384.4525274801808
109,54594,condition_b,True,249.77169517305893
110,54594,condition_b,True,958.7065667298956
111,54594,condition_b,True,1244.1408449673509
112,54594,condition_b,True,1354.6923870351825
113,54594,condition_b,True,265.2588196216932
114,54594,baseline,True,515.886829449398
115,54594,baseline,True,631.1770908333721
116,54594,condition_b,True,466.6583161736662
117,54594,condition_b,True,678.418997564125
118,54594,baseline,False,488.9228258311209
119,54594,condition_a,True,765.2699876953981
0,12532,baseline,False,270.7889980426103
1,12532,condition_b,True,439.7219559533369
2,12532,baseline,False,433.5031106887473
3,12532,condition_a,False,1339.2327658318409
4,12532,condition_a,True,1019.4005397545548
5,12532,condition_a,True,549.5826350261451
6,12532,condition_a,True,848.8446715855897
7,12532,condition_b,True,320.74410076953376
8,12532,condition_b,True,398.3073714365112
9,12532,condition_a,False,401.3629650880093
10,12532,condition_b,True,451.7740445121201
11,12532,baseline,True,497.3520383922963
12,12532,baseline,True,236.83583744852635
13,12532,baseline,True,467.3499922248776
14,12532,baseline,True,364.11659076521767
15,12532,condition_a,True,502.0946533782034
16,12532,baseline,True,573.2598874652678
17,12532,condition_b,True,285.27052624929075
18,12532,condition_a,False,518.9857163786894
19,12532,condition_b,True,1037.7779447825133
20,12532,baseline,True,694.9941604931128
21,12532,condition_a,True,545.7947661649343
22,12532,condition_b,True,468.43511719875903
23,12532,condition_b,True,588.0836638000195
24,12532,baseline,True,461.3440123973211
25,12532,baseline,False,615.0213899786368
26,12532,condition_a,True,597.6716045336912
27,12532,baseline,True,747.560421718138
28,12532,baseline,True,315.89029126151405
29,12532,condition_a,True,1844.1262458044107
30,12532,condition_a,True,589.5127992878666
31,12532,condition_b,True,796.7240976782672
32,12532,baseline,True,770.0967711231058
33,12532,condition_a,False,845.3580986938641
34,12532,condition_b,True,687.2050661721565
35,12532,condition_a,False,1150.6609592654504
36,12532,baseline,True,688.2053332707396
37,12532,condition_b,True,269.70632093848883
38,12532,condition_a,True,1402.9657588881576
39,12532,baseline,True,297.0810778232301
40,12532,condition_a,False,895.0133542199799
41,12532,baseline,False,441.5117562581064
42,12532,condition_b,True,208.3628372180152
43,12532,condition_b,True,836.3096315749056
44,12532,condition_b,True,310.2326536598983
45,12532,baseline,True,908.1061856775364
46,12532,condition_a,True,398.5995062234056
47,12532,condition_b,True,708.2831883622603
48,12532,baseline,False,328.09705326177084
49,12532,baseline,True,433.5164781632485
50,12532,condition_a,True,760.0289617347809
51,12532,condition_b,True,318.2452668316501
52,12532,condition_b,True,393.4784511020586
53,12532,baseline,True,750.5409170350273
54,12532,condition_a,True,454.20554697238674
55,12532,baseline,True,218.486477445559
56,12532,baseline,False,370.19096839148585
57,12532,baseline,True,191.25757107892085
58,12532,condition_b,True,464.4679389012143
59,12532,condition_a,True,974.395130477512
60,12532,baseline,True,423.6666249083894
61,12532,condition_b,True,383.1913166618784
62,12532,condition_b,True,1592.715943816755
63,12532,condition_a,True,1092.2886078867798
64,12532,condition_b,True,520.6374396654195
65,12532,condition_a,True,826.8288755569289
66,12532,condition_a,True,1287.166799369679
67,12532,condition_b,True,429.3843241847524
68,12532,baseline,True,420.58165446713457
69,12532,condition_b,True,459.0524295445037
70,12532,condition_a,True,504.7812326402867
71,12532,condition_a,True,2141.4295981827827
72,12532,condition_a,True,1167.8565547747137
73,12532,condition_b,True,242.349901553498
74,12532,condition_b,True,514.4652738097694
75,12532,condition_a,True,469.2708118719377
76,12532,condition_a,True,832.7347691637164
77,12532,baseline,True,563.6109554210633
78,12532,condition_b,True,451.6958159851482
79,12532,condition_a,True,557.9356547239813
80,12532,baseline,True,224.4775822380861
81,12532,condition_a,True,749.1287049207223
82,12532,condition_a,True,967.729732636196
83,12532,baseline,True,527.889949669325
84,12532,baseline,True,1316.6955234103316
85,12532,condition_b,True,404.1779072212384
86,12532,condition_a,True,680.8402312046213
87,12532,baseline,True,510.9511960992361
88,12532,condition_b,True,382.03049806755024
89,12532,baseline,True,500.28554586214045
90,12532,baseline,True,718.1127494987923
91,12532,condition_a,True,511.0227398146832
92,12532,baseline,True,745.5256340875611
93,12532,condition_a,False,546.7684946697956
94,12532,baseline,True,881.234368138564
95,12532,condition_b,True,982.0141497446724
96,12532,baseline,True,473.91583511224593
97,12532,condition_a,False,333.08117698916533
98,12532,condition_b,True,594.5592193342059
99,12532,condition_b,True,281.18047310203025
100,12532,condition_a,True,538.9567469285311
101,12532,condition_b,True,549.558233320524
102,12532,baseline,True,407.8270804965716
103,12532,condition_b,True,525.3381837198373
104,12532,condition_a,False,703.5900489436951
105,12532,baseline,True,386.0265034225905
106,12532,baseline,True,564.5156536462282
107,12532,condition_a,False,469.4701143182313
108,12532,condition_b,True,221.71714386449128
109,12532,condition_a,True,1057.0800569296318
110,12532,condition_b,True,541.1661275097455
111,12532,condition_a,True,1033.2504378541594
112,12532,baseline,True,476.5691465212005
113,12532,condition_b,True,624.3333459444589
114,12532,condition_b,True,374.9852720909679
115,12532,condition_b,True,777.4415714703983
116,12532,condition_b,True,314.87482287325827
117,12532,baseline,True,773.4745599769909
118,12532,condition_a,False,464.2084021992644
119,12532,condition_b,True,427.13039085399714
0,89054,condition_b,True,342.5610696341299
1,89054,baseline,False,320.20447297851075
2,89054,condition_b,True,763.3139132678747
3,89054,baseline,True,709.8426445439716
4,89054,condition_a,True,578.3464607859414
5,89054,condition_b,True,416.0229006558256
6,89054,condition_a,False,254.71484265375173
7,89054,condition_b,True,466.269407480833
8,89054,condition_b,True,266.9975836310117
9,89054,baseline,True,539.7670533238957
10,89054,baseline,False,906.4017884476764
11,89054,condition_a,True,801.3934617410406
12,89054,condition_b,True,243.75082617057728
13,89054,condition_b,False,138.90825280020167
14,89054,condition_a,True,864.1012538404784
15,89054,baseline,True,542.008261500822
16,89054,condition_a,True,352.99875652841973
17,89054,condition_a,False,389.141182192209
18,89054,condition_b,True,364.413403872964
19,89054,condition_b,True,203.14864726718696
20,89054,condition_a,True,636.0426591191723
21,89054,condition_a,False,951.0947782834264
22,89054,condition_a,True,203.66594860489477
23,89054,baseline,True,305.14094929649474
24,89054,baseline,True,140.78324444933224
25,89054,condition_a,True,422.20560441017057
26,89054,condition_a,True,399.6465578775636
27,89054,condition_a,False,455.9578238971519
28,89054,condition_a,True,671.257577433852
29,89054,condition_b,True,322.1595605421771
30,89054,baseline,True,647.7779293365206
31,89054,baseline,False,355.33794883755013
32,89054,condition_a,True,817.6327834589512
33,89054,condition_b,True,206.6343539314787
34,89054,condition_b,True,469.7646429248352
35,89054,condition_a,True,1084.1704053876188
36,89054,condition_b,True,172.92776018857947
37,89054,condition_b,False,225.945945466078
38,89054,condition_b,False,193.4975171755616
39,89054,condition_a,True,465.7001524924702
40,89054,baseline,True,141.6384980060387
41,89054,condition_a,True,449.1730208726314
42,89054,baseline,True,263.169925204329
43,89054,baseline,True,271.6468615588206
44,89054,condition_a,False,615.1870782099975
45,89054,condition_b,True,236.87107163419208
46,89054,condition_a,True,472.35667084846375
47,89054,baseline,True,248.51828881217625
48,89054,condition_b,True,235.1483484300634
49,89054,baseline,True,290.11319338350535
50,89054,baseline,True,534.6068736704688
51,89054,condition_a,True,241.56380176512076
52,89054,baseline,True,271.9939248978522
53,89054,condition_b,True,254.26966709545505
54,89054,condition_a,False,1387.8230353384424
55,89054,condition_b,True,250.1454728417698
56,89054,condition_b,True,803.1134545527362
57,89054,condition_a,True,401.3314911447185
58,89054,baseline,True,269.3334155359689
59,89054,baseline,False,337.009079130854
60,89054,baseline,True,180.05210028967795
61,89054,baseline,True,87.8326231734095
62,89054,baseline,True,472.22762098492046
63,89054,condition_b,True,294.5848611098899
64,89054,baseline,True,353.0072452749897
65,89054,condition_a,True,376.4164675186614
66,89054,condition_b,True,221.26752475041857
67,89054,baseline,True,317.50393441360706
68,89054,baseline,False,410.4176281489188
69,89054,baseline,True,266.74617443250315
70,89054,condition_b,True,287.16253817046385
71,89054,condition_b,True,215.99877083387628
72,89054,baseline,True,575.6688150776074
73,89054,baseline,True,668.1019341629823
74,89054,baseline,True,158.48996805400026
75,89054,baseline,True,435.4006446098352
76,89054,baseline,True,521.2910329270499
77,89054,condition_b,True,359.0190477410081
78,89054,baseline,True,879.6439444811832
79,89054,condition_b,True,307.4413306092906
80,89054,condition_a,True,629.2142618282712
81,89054,condition_b,True,512.6987103298932
82,89054,baseline,True,292.3924329991908
83,89054,baseline,True,229.99627029345447
84,89054,condition_a,True,255.55763961204983
85,89054,condition_a,False,312.95901155778307
86,89054,condition_b,True,339.98198104991826
87,89054,condition_b,True,357.0620946132664
88,89054,condition_a,False,391.71891317854926
89,89054,condition_a,True,839.2271803976654
90,89054,condition_a,True,1047.62181711916
91,89054,condition_b,True,169.28483980963824
92,89054,condition_b,True,188.1195201090358
93,89054,condition_a,True,513.2818744632159
94,89054,condition_a,True,478.0391097972695
95,89054,condition_b,False,719.8449604951547
96,89054,condition_b,True,175.26749929387066
97,89054,condition_b,True,425.2948372972214
98,89054,baseline,True,173.3683673615336
99,89054,condition_b,True,1126.391723375404
100,89054,baseline,True,270.86008416234927
101,89054,condition_b,True,260.1142976231287
102,89054,baseline,True,308.50718499667323
103,89054,condition_a,True,551.925583980082
104,89054,condition_a,True,870.1984407624641
105,89054,condition_a,False,496.4888676426513
106,89054,baseline,True,561.6229194775257
107,89054,condition_a,True,428.7229725455029
108,89054,baseline,True,303.5919468659922
109,89054,condition_a,False,514.8138522782629
110,89054,condition_a,True,564.656369386589
111,89054,condition_b,True,221.2268858982054
112,89054,condition_a,True,465.4804447455968
113,89054,condition_a,True,916.5278092778284
114,89054,baseline,False,717.8768056914536
115,89054,condition_a,False,579.6327567646078
116,89054,condition_b,True,268.4744286230716
117,89054,condition_b,True,214.91321910835305
118,89054,baseline,False,240.36603842545756
119,89054,condition_b,True,350.6123630429093
0,17331,condition_b,True,192.94173771119304
1,17331,condition_a,False,746.2348329363883
2,17331,condition_b,True,199.02912824319924
3,17331,condition_b,True,252.23259889419543
4,17331,condition_b,True,245.65838506154907
5,17331,condition_b,True,214.4515239784156
6,17331,condition_b,True,311.48652900391363
7,17331,baseline,True,284.6224257494591
8,17331,condition_b,True,287.94297683756315
9,17331,condition_a,True,933.7027133811108
10,17331,baseline,True,259.6666691314219
11,17331,condition_a,False,1372.358358649902
12,17331,baseline,True,166.9538361073215
13,17331,condition_b,True,215.64382212872235
14,17331,condition_b,True,208.18458558086692
15,17331,condition_a,False,382.4283420181173
16,17331,baseline,True,701.5605635417677
17,17331,condition_b,True,187.5542547627485
18,17331,baseline,True,499.4825927239949
19,17331,condition_a,True,586.3961223014954
20,17331,condition_a,True,677.3020361801463
21,17331,baseline,False,161.52381610377356
22,17331,condition_a,False,1955.107120662721
23,17331,baseline,True,347.267677637214
24,17331,condition_b,True,294.2331034249761
25,17331,condition_a,True,323.7892464895422
26,17331,condition_b,True,325.58915319657297
27,17331,baseline,True,760.3758081540765
28,17331,condition_b,True,281.1221513447612
29,17331,baseline,True,443.8963817528961
30,17331,condition_a,True,425.2484004833808
31,17331,condition_a,False,1267.801792732026
32,17331,condition_a,True,583.5647461458752
33,17331,condition_b,True,283.25066553239907
34,17331,condition_b,True,342.52956081034813
35,17331,baseline,True,406.8784241965132
36,17331,condition_b,True,512.5970644267935
37,17331,condition_a,True,901.7481115319044
38,17331,baseline,True,269.43081584368167
39,17331,condition_a,True,301.75810032300666
40,17331,baseline,True,296.9484824331906
41,17331,condition_a,True,382.24352826272553
42,17331,condition_a,True,719.8760902574807
43,17331,condition_b,True,622.529008943893
44,17331,condition_a,True,751.5011563888584
45,17331,baseline,True,300.9496606765468
46,17331,condition_a,False,472.7289653576857
47,17331,condition_b,True,144.8453392787712
48,17331,baseline,True,293.0520648851276
49,17331,baseline,False,571.5697074381912
50,17331,condition_b,True,482.8953299762548
51,17331,condition_b,True,425.083116324386
52,17331,condition_a,True,501.02505862681625
53,17331,condition_a,True,682.633028006127
54,17331,baseline,True,449.2121239234063
55,17331,condition_b,True,276.04321102267374
56,17331,condition_b,True,391.0339999412575
57,17331,baseline,True,447.1502582795363
58,17331,baseline,True,260.83187017035505
59,17331,condition_a,True,754.5755655740758
60,17331,baseline,True,435.17681178627663
61,17331,condition_a,False,351.1675932257265
62,17331,condition_b,True,312.21005196153175
63,17331,baseline,True,158.04260615297218
64,17331,condition_b,False,161.05911951285464
65,17331,baseline,True,374.6048652681007
66,17331,condition_a,False,1144.289920402451
67,17331,baseline,True,350.3733940743853
68,17331,baseline,True,203.746766306697
69,17331,condition_a,False,356.1742454818696
70,17331,condition_a,True,444.23002539714753
71,17331,baseline,True,678.501541269914
72,17331,baseline,False,573.1188981384252
73,17331,condition_b,True,237.0351271110305
74,17331,condition_b,True,150.24970600129947
75,17331,baseline,True,251.99743082416208
76,17331,condition_a,True,1489.8010502169443
77,17331,baseline,True,594.5127282275068
78,17331,condition_a,True,143.34173662877467
79,17331,condition_a,True,558.8377022488
80,17331,condition_a,True,686.8956716608345
81,17331,condition_b,True,509.5271769132082
82,17331,baseline,True,508.5075763911847
83,17331,condition_b,True,478.69282843421394
84,17331,condition_b,True,548.2790283244352
85,17331,condition_a,True,857.9723145312123
86,17331,baseline,True,869.4450524525158
87,17331,condition_a,True,749.6151542449861
88,17331,condition_b,True,234.1075280742477
89,17331,condition_b,True,402.0708150917304
90,17331,condition_a,False,673.5219357614931
91,17331,baseline,True,497.65421208405365
92,17331,baseline,True,155.215580909367
93,17331,condition_b,True,400.1272028539407
94,17331,condition_a,False,491.620895513204
95,17331,condition_a,True,992.0598317264012
96,17331,condition_a,True,720.2262506779263
97,17331,condition_a,True,838.7997208910862
98,17331,baseline,True,284.04461129945514
99,17331,baseline,True,305.4504747630575
100,17331,baseline,True,202.9160641908
101,17331,condition_b,True,549.2663473532192
102,17331,baseline,True,448.7969297745881
103,17331,baseline,False,198.170566365144
104,17331,condition_a,True,993.1219956882384
105,17331,baseline,True,248.7565553864453
106,17331,baseline,True,619.8917147456796
107,17331,condition_b,True,441.2914388850273
108,17331,condition_a,True,805.4584834232509
109,17331,baseline,False,289.21813592784866
110,17331,condition_a,True,496.749316203382
111,17331,condition_a,True,277.11658433906933
112,17331,condition_b,True,215.8015142523044
113,17331,condition_b,True,520.0275936628824
114,17331,baseline,True,709.1201468411476
115,17331,condition_b,True,493.3515040358382
116,17331,condition_a,True,1066.106698070224
117,17331,condition_b,True,262.7696956336649
118,17331,condition_b,True,146.43613786153574
119,17331,condition_b,True,194.7942205827526
0,93008,baseline,True,159.2993109587481
1,93008,baseline,True,252.5798551788092
2,93008,condition_a,True,123.09792941955652
3,93008,baseline,False,267.4240935613004
4,93008,condition_a,True,764.3743275730378
5,93008,condition_a,True,215.3839516319828
6,93008,condition_b,True,220.05600602560895
7,93008,condition_b,True,101.52005713167566
8,93008,condition_b,True,209.58708413273385
9,93008,condition_b,True,278.28455958184094
10,93008,condition_b,True,137.75392322437062
11,93008,baseline,True,360.3235375862132
12,93008,condition_a,True,356.09498437721714
13,93008,baseline,True,223.8402312595275
14,93008,baseline,True,218.92108593068764
15,93008,condition_a,False,99.14515139024674
16,93008,baseline,True,142.79225750288174
17,93008,baseline,True,372.6980544959594
18,93008,condition_a,True,386.5866529063128
19,93008,condition_b,True,254.97011520173643
20,93008,condition_b,True,209.3480037572517
21,93008,condition_b,True,367.9195762702119
22,93008,condition_a,False,476.03680983409305
23,93008,condition_a,True,294.2646879715432
24,93008,condition_a,True,133.60839824813914
25,93008,condition_b,True,169.45130611610688
26,93008,baseline,True,254.39065022479585
27,93008,baseline,False,112.75928803197888
28,93008,baseline,True,266.35805124448484
29,93008,condition_b,True,103.66046299805338
30,93008,condition_a,True,333.123730642476
31,93008,condition_b,True,106.50906194818631
32,93008,condition_a,True,305.6505019246497
33,93008,condition_b,True,469.9490715364207
34,93008,condition_a,True,103.63502288039284
35,93008,condition_a,True,373.0143089991778
36,93008,condition_a,True,314.3760834542587
37,93008,condition_b,True,158.64805704389917
38,93008,condition_a,True,634.0520845000344
39,93008,baseline,True,74.44836335491202
40,93008,condition_a,False,191.01482543534388
41,93008,condition_b,True,281.02799592519693
42,93008,condition_b,True,352.78552234157223
43,93008,condition_b,True,269.3104058210509
44,93008,baseline,False,213.62688135758697
45,93008,condition_a,False,175.39045287571744
46,93008,condition_a,True,343.50227887443896
47,93008,condition_a,True,208.20646456427724
48,93008,condition_a,True,427.2390349798905
49,93008,condition_a,True,739.0094461056408
50,93008,baseline,True,304.9306341361616
51,93008,condition_b,True,478.10307859608326
52,93008,condition_b,True,186.2452568750544
53,93008,condition_a,True,205.5256876001932
54,93008,condition_b,True,133.72842269781313
55,93008,baseline,True,71.30457544324163
56,93008,condition_b,True,238.20566904878848
57,93008,condition_a,True,574.7505957215724
58,93008,condition_b,True,224.81405670925716
59,93008,condition_a,True,397.77214691138937
60,93008,condition_b,True,162.1148674005706
61,93008,condition_a,True,547.7728670984627
62,93008,condition_b,True,71.54546046032635
63,93008,baseline,True,210.58239730785257
64,93008,condition_a,True,584.1869611440218
65,93008,baseline,True,491.8255417585199
66,93008,baseline,True,229.58053592248888
67,93008,condition_b,True,186.5145132300473
68,93008,condition_a,True,324.9878124906246
69,93008,baseline,True,197.60370252228023
70,93008,baseline,True,310.6225099130903
71,93008,baseline,True,193.12753778832885
72,93008,baseline,True,124.69630804561996
73,93008,condition_a,False,880.3161118823754
74,93008,condition_b,True,166.17417152571437
75,93008,condition_a,True,198.72731075057703
76,93008,baseline,True,196.87517607868168
77,93008,baseline,True,94.34626770850872
78,93008,condition_a,True,542.4146799704125
79,93008,baseline,True,177.20278109469425
80,93008,condition_b,True,221.7872332502725
81,93008,condition_b,True,115.6826622460222
82,93008,baseline,True,214.7656928777853
83,93008,condition_a,True,496.60772879149687
84,93008,condition_b,True,101.17581464402107
85,93008,baseline,True,100.06379074542
86,93008,baseline,True,252.68678620416904
87,93008,baseline,True,941.4542290622112
88,93008,condition_a,False,184.36489382798612
89,93008,condition_b,True,183.89471579926337
90,93008,condition_a,False,398.88221391698977
91,93008,condition_b,True,89.07704060403663
92,93008,condition_b,True,85.16390785594122
93,93008,baseline,True,137.97776853992502
94,93008,condition_a,False,444.2841868775568
95,93008,condition_b,False,460.2033356543151
96,93008,baseline,True,93.86243176413886
97,93008,condition_b,True,109.41735171719108
98,93008,baseline,True,447.36757440951504
99,93008,baseline,True,92.44825993024548
100,93008,baseline,True,238.02454736981863
101,93008,baseline,True,213.54480391142852
102,93008,baseline,False,404.1661914812181
103,93008,condition_b,True,229.245753436544
104,93008,baseline,True,151.49110592536516
105,93008,baseline,True,218.87595942510495
106,93008,condition_b,True,125.750492440081
107,93008,condition_b,True,94.29311275457464
108,93008,baseline,True,293.00056985307475
109,93008,condition_a,False,274.0795275510507
110,93008,condition_a,False,282.9521112900308
111,93008,condition_b,True,57.592217043705865
112,93008,condition_b,True,127.16825584757134
113,93008,condition_a,True,368.3361543764532
114,93008,condition_a,True,230.7637573314278
115,93008,condition_a,False,279.93057083828586
116,93008,baseline,True,298.1899641053513
117,93008,condition_b,True,166.17643269761953
118,93008,condition_a,True,211.14040284467603
119,93008,condition_b,True,273.5205213601822
0,19505,baseline,True,671.3625006673177
1,19505,condition_b,True,673.241309036028
2,19505,condition_b,True,382.8312163791977
3,19505,condition_a,True,819.7051943924316
4,19505,baseline,True,317.5443176178023
5,19505,condition_a,False,787.9653445296773
6,19505,baseline,True,334.4880491226984
7,19505,baseline,True,304.1853445574698
8,19505,condition_b,True,329.0283745938202
9,19505,condition_b,True,478.9290973063808
10,19505,condition_b,True,395.6547995722523
11,19505,condition_b,False,446.75992414904704
12,19505,condition_a,True,1345.5293450562835
13,19505,condition_a,True,731.602433448737
14,19505,baseline,True,315.0642997103645
15,19505,condition_a,True,353.1854606080403
16,19505,condition_a,False,608.3803395770809
17,19505,baseline,True,449.7182791621698
18,19505,condition_b,True,490.4608919022648
19,19505,condition_b,True,746.0234976896558
20,19505,condition_a,True,1405.015811284892
21,19505,baseline,True,1246.220489711524
22,19505,baseline,True,1616.1799471234303
23,19505,condition_b,True,722.903510690111
24,19505,condition_b,True,621.4103090030803
25,19505,condition_a,True,411.4397961907333
26,19505,condition_b,True,650.8074289675717
27,19505,condition_a,True,411.3463578653882
28,19505,baseline,True,785.0222131442175
29,19505,condition_b,True,245.5530575261424
30,19505,condition_b,True,313.0087885962711
31,19505,baseline,False,630.0658519384433
32,19505,baseline,True,359.03593459050586
33,19505,condition_b,False,307.8740959979704
34,19505,condition_b,True,377.22462958936507
35,19505,condition_b,True,777.2436720188226
36,19505,condition_b,True,702.9890585335619
37,19505,condition_b,True,344.5926272345962
38,19505,baseline,True,2942.2643238586684
39,19505,condition_a,False,699.2029158256807
40,19505,baseline,True,1332.0097390291885
41,19505,condition_a,True,384.4864848557041
42,19505,baseline,True,711.0798773648482
43,19505,condition_b,True,400.6732493494867
44,19505,condition_a,True,444.8943658807161
45,19505,baseline,True,841.1550621906771
46,19505,baseline,True,400.1670391739106
47,19505,condition_b,True,405.5497703889047
48,19505,condition_a,True,611.0573630087395
49,19505,baseline,True,626.3022878312328
50,19505,condition_b,True,671.5478488586975
51,19505,baseline,True,675.9752189878096
52,19505,baseline,True,820.3814398887541
53,19505,baseline,True,401.5097593188096
54,19505,condition_a,True,1586.9538375566444
55,19505,condition_a,False,846.7111882296434
56,19505,condition_b,True,429.72159930526846
57,19505,baseline,True,210.85217316742416
58,19505,condition_a,True,358.3488946567178
59,19505,condition_b,True,188.79880222849164
60,19505,condition_a,True,311.0325792515975
61,19505,baseline,False,1101.1545144721467
62,19505,condition_a,True,1364.583541948156
63,19505,condition_a,True,795.1814392021183
64,19505,condition_b,True,1177.816122559692
65,19505,condition_a,True,1269.184458664292
66,19505,baseline,True,831.8142684187077
67,19505,condition_a,True,1612.6044732118633
68,19505,condition_b,True,636.8199618496676
69,19505,baseline,True,583.9103377502089
70,19505,condition_a,True,530.7576137708004
71,19505,condition_a,True,1222.5297177469245
72,19505,condition_a,False,1358.4119283744403
73,19505,baseline,True,1342.783006281953
74,19505,condition_a,True,1078.222927866232
75,19505,condition_a,True,893.8046946369694
76,19505,baseline,True,817.8442690121632
77,19505,condition_a,True,1052.3158011329715
78,19505,condition_b,True,455.2772342152385
79,19505,condition_a,True,1162.301395576118
80,19505,baseline,True,387.26159130488384
81,19505,condition_b,True,307.9016666163122
82,19505,condition_b,True,1331.3357528222757
83,19505,condition_b,True,664.8741080098633
84,19505,condition_a,True,861.5463520175554
85,19505,condition_b,True,249.4909695442308
86,19505,condition_a,False,543.6319001967628
87,19505,baseline,True,1603.2887337605248
88,19505,baseline,True,252.7573920715932
89,19505,baseline,False,307.00387021504133
90,19505,condition_b,True,684.4258793216492
91,19505,condition_a,True,669.0582781004467
92,19505,condition_a,True,579.0719322154603
93,19505,condition_b,True,563.7037203276763
94,19505,condition_a,False,776.3087028076781
95,19505,condition_a,True,263.41355995922686
96,19505,condition_b,True,287.64526818698016
97,19505,condition_b,True,1379.217189820806
98,19505,baseline,True,868.5903801300765
99,19505,condition_b,True,442.61424086858426
100,19505,condition_a,True,785.9084262151764
101,19505,baseline,True,1199.116786958611
102,19505,condition_b,True,267.4377013517245
103,19505,baseline,True,632.9482604766132
104,19505,baseline,True,1151.7766444565905
105,19505,baseline,False,202.56846422096783
106,19505,baseline,True,367.36118561274367
107,19505,condition_b,True,592.9284056437853
108,19505,condition_b,False,418.00754634358105
109,19505,baseline,True,472.3282530525225
110,19505,condition_b,True,553.8503118643083
111,19505,baseline,True,657.7739895781732
112,19505,condition_a,True,1010.8601059840082
113,19505,condition_a,True,1341.9536661095935
114,19505,condition_a,True,795.0905221013122
115,19505,condition_a,False,867.4926849193142
116,19505,baseline,True,463.94942329020193
117,19505,condition_b,True,348.61230101010784
118,19505,condition_a,False,981.0110511227329
119,19505,baseline,True,979.7784197811304
0,61612,condition_b,True,203.4455936648152
1,61612,condition_a,True,600.53561609755
2,61612,condition_b,True,746.6013350569523
3,61612,baseline,True,883.1523119031519
4,61612,condition_b,True,134.24771331243093
5,61612,condition_b,True,245.19888384199092
6,61612,baseline,True,449.3330398972424
7,61612,condition_b,True,524.9190368632649
8,61612,baseline,True,348.9548247549311
9,61612,condition_a,True,1236.6905582483705
10,61612,baseline,True,264.05117998215536
11,61612,condition_a,True,641.0424997110151
12,61612,condition_a,True,438.5284604623485
13,61612,condition_b,True,345.66977435441646
14,61612,condition_b,True,233.8198440753613
15,61612,baseline,True,56.93067356055538
16,61612,baseline,True,158.9780329436795
17,61612,condition_a,False,529.359385707719
18,61612,condition_a,True,717.053527300454
19,61612,condition_b,True,202.82750287589283
20,61612,baseline,True,127.08354170910228
21,61612,condition_b,True,377.5623659112011
22,61612,condition_b,True,365.7189263266071
23,61612,condition_a,False,714.572094268906
24,61612,condition_b,True,245.03222404617085
25,61612,baseline,True,483.97980326759614
26,61612,baseline,False,291.7676273968633
27,61612,condition_b,True,253.5843092996612
28,61612,condition_b,True,248.5988235376312
29,61612,condition_a,True,517.9715848894831
30,61612,condition_b,True,1032.607883671232
31,61612,condition_a,True,952.7570136989806
32,61612,baseline,True,244.39669659591763
33,61612,baseline,True,624.1419243578605
34,61612,condition_a,True,435.4651982422366
35,61612,condition_a,False,329.4800450148932
36,61612,baseline,True,1431.0724988701363
37,61612,condition_b,True,415.1238879916731
38,61612,baseline,True,379.6730615660657
39,61612,baseline,True,444.76014054448535
40,61612,condition_a,True,271.44799212269186
41,61612,condition_b,True,441.7278832182487
42,61612,baseline,True,411.4448322126968
43,61612,condition_b,True,391.4789736923023
44,61612,condition_b,True,529.2747125231035
45,61612,baseline,True,623.3211399765759
46,61612,condition_a,True,416.97227233557976
47,61612,condition_a,False,445.876288244172
48,61612,condition_a,True,1756.9112348305684
49,61612,condition_b,True,530.6719901098306
50,61612,baseline,False,848.2309041435092
51,61612,baseline,True,1634.4051299568755
52,61612,condition_b,True,231.01464831272773
53,61612,condition_a,True,398.7356492692744
54,61612,condition_b,True,295.3628953295117
55,61612,baseline,True,340.2830828297961
56,61612,condition_a,True,1272.5278819306063
57,61612,condition_a,True,1066.647085529622
58,61612,condition_b,True,232.94771887769977
59,61612,condition_a,True,351.8004081533614
60,61612,baseline,True,357.583332759448
61,61612,condition_a,True,1291.5201362524656
62,61612,baseline,False,332.1383172528593
63,61612,condition_a,True,332.2666555793613
64,61612,baseline,True,557.6946528445111
65,61612,condition_b,True,191.89315548677837
66,61612,baseline,True,268.5475144689718
67,61612,condition_a,True,404.9052262117256
68,61612,baseline,True,250.48347249917876
69,61612,condition_a,True,835.2196810270174
70,61612,condition_b,True,262.89008699264355
71,61612,condition_a,False,593.1401454814547
72,61612,baseline,True,893.3163774411203
73,61612,condition_b,True,651.6684521536974
74,61612,condition_b,True,250.6800630333653
75,61612,baseline,False,407.786976227778
76,61612,baseline,False,279.47435102706464
77,61612,baseline,True,337.69216420196176
78,61612,condition_b,True,217.965802171097
79,61612,baseline,True,444.6017613184912
80,61612,condition_b,True,294.30373904613884
81,61612,baseline,True,481.7441984094585
82,61612,condition_a,True,178.13244456190478
83,61612,condition_b,True,368.7600810264623
84,61612,condition_a,True,474.5900056881202
85,61612,condition_a,False,602.4116145526724
86,61612,condition_a,False,919.5956499682868
87,61612,condition_a,True,1300.976429928098
88,61612,condition_a,True,636.0401155305645
89,61612,condition_a,True,177.46715753306904
90,61612,condition_b,True,514.1714557634447
91,61612,condition_b,True,472.2652754455466
92,61612,condition_a,True,635.9053009672376
93,61612,condition_b,True,471.8456351200731
94,61612,baseline,False,570.7424409405619
95,61612,condition_b,True,234.24505688399168
96,61612,baseline,True,306.3390384186334
97,61612,baseline,True,488.5511524438461
98,61612,condition_a,True,1213.317066953061
99,61612,baseline,True,552.4032435136578
100,61612,condition_a,True,284.5381394521119
101,61612,condition_b,True,481.5787672726274
102,61612,condition_b,True,250.769386262327
103,61612,baseline,True,755.6800596047325
104,61612,condition_a,True,223.53013166582411
105,61612,condition_a,False,375.8430563967294
106,61612,condition_a,True,669.9190996829445
107,61612,baseline,False,571.1766707076858
108,61612,baseline,True,294.178589331615
109,61612,baseline,True,595.583516262543
110,61612,baseline,True,883.3518462370291
111,61612,condition_a,True,908.9979722844448
112,61612,condition_b,True,474.4002959663325
113,61612,condition_a,True,2320.30940133332
114,61612,condition_b,True,235.64398409361368
115,61612,condition_b,False,350.8165216498495
116,61612,condition_a,True,625.5805679250362
117,61612,condition_b,True,609.2657097226345
118,61612,baseline,True,318.4899670453376
119,61612,condition_b,True,170.85658963315407
0,94906,condition_a,False,390.9119883772713
1,94906,baseline,True,234.46308940112613
2,94906,baseline,False,373.19523199786
3,94906,condition_b,True,334.7469991148366
4,94906,condition_b,True,301.71702247788005
5,94906,condition_b,True,121.52021151512994
6,94906,baseline,False,238.59788394594037
7,94906,condition_b,True,225.50816695434864
8,94906,condition_a,False,357.9648234973312
9,94906,condition_a,True,359.41635215336487
10,94906,condition_a,True,721.6688484435178
11,94906,baseline,True,527.1979013450225
12,94906,condition_b,True,302.17421431279485
13,94906,condition_b,True,213.68375108497625
14,94906,condition_a,True,782.7946812540691
15,94906,condition_b,True,282.0530908739279
16,94906,baseline,True,179.35508332525708
17,94906,condition_b,True,232.80765078378155
18,94906,baseline,True,124.940148031603
19,94906,baseline,True,315.54910503510786
20,94906,condition_b,True,179.01781390126823
